Initial conditions

phi = 0.0
theta =0.218893
psi=0.0;

u=35.156
v =-0.79
w=7.598

X =0.0
Y=0.0
Z=609.6


g=9.8

Time     Ax                Ay              Az              p                q             q

0	2.12909986	-6.76E-11	-9.570816017	0	0	0
0.02	2.129280287	-0.01025101	-9.717008555	-0.004416687	-0.006168835	-0.0001012
0.04	2.127684998	-0.00913537	-9.703982298	-0.009268289	-0.013181113	-0.000170792
0.06	2.124367034	-0.007937119	-9.686654617	-0.013677532	-0.019781246	-0.000191026
0.08	2.119469119	-0.006658568	-9.665414104	-0.017680898	-0.025976861	-0.000167703
0.1	2.113129723	-0.005302236	-9.640632427	-0.021311859	-0.031776415	-0.000106021
0.12	2.105482684	-0.003870779	-9.612664624	-0.024601127	-0.037189112	-1.06E-05
0.14	2.096656898	-0.002366935	-9.581849389	-0.027576893	-0.042224821	0.000114271
0.16	2.086776064	-0.000793473	-9.548509371	-0.030265034	-0.046893993	0.000264986
0.18	2.075958491	0.000846845	-9.512951463	-0.03268931	-0.051207583	0.000438178
0.2	2.064316955	0.002551292	-9.475467102	-0.034871537	-0.055176972	0.000630876
0.22	2.051958603	0.004317204	-9.43633257	-0.03683175	-0.0588139	0.000840437
0.24	2.038984898	0.006141999	-9.3958093	-0.03858835	-0.062130386	0.001064505
0.26	2.025491608	0.008023192	-9.354144194	-0.04015824	-0.065138671	0.001300989
0.28	2.011568825	0.009958403	-9.311569947	-0.041556947	-0.067851149	0.001548029
0.3	1.997301022	0.011945367	-9.268305371	-0.042798733	-0.070280311	0.001803979
0.32	1.982767126	0.013981939	-9.224555747	-0.0438967	-0.07243869	0.00206738
0.34	1.968040635	0.016066095	-9.180513164	-0.044862885	-0.074338806	0.002336941
0.36	1.953189736	0.018195933	-9.136356886	-0.045708346	-0.075993124	0.002611522
0.38	1.93827746	0.020369675	-9.092253716	-0.046443239	-0.077414009	0.002890116
0.4	1.923361838	0.022585657	-9.048358376	-0.047076894	-0.078613684	0.003171839
0.42	1.908496082	0.024842335	-9.004813891	-0.047617879	-0.079604197	0.00345591
0.44	1.89372877	0.027138275	-8.961751977	-0.048074064	-0.080397388	0.003741642
0.46	1.87910404	0.029472151	-8.919293446	-0.048452675	-0.081004861	0.004028434
0.48	1.864661791	0.031842738	-8.877548606	-0.048760347	-0.081437959	0.004315757
0.5	1.850437893	0.034248907	-8.836617668	-0.04900317	-0.081707738	0.004603147
0.52	1.836464387	0.036689624	-8.796591161	-0.049186733	-0.081824956	0.004890199
0.54	1.822769697	0.039163936	-8.757550338	-0.049316166	-0.08180005	0.005176556
0.56	1.80937884	0.041670971	-8.719567594	-0.049396174	-0.081643125	0.005461906
0.58	1.796313624	0.044209931	-8.68270688	-0.049431073	-0.081363945	0.005745976
0.6	1.783592855	0.046780087	-8.647024106	-0.049424821	-0.080971922	0.006028526
0.62	1.77123253	0.049380773	-8.612567555	-0.049381045	-0.080476113	0.006309345
0.64	1.759246031	0.052011377	-8.579378287	-0.04930307	-0.07988521	0.006588246
0.66	1.74764431	0.054671342	-8.547490529	-0.049193941	-0.079207545	0.006865067
0.68	1.736436068	0.057360158	-8.516932078	-0.049056449	-0.078451085	0.00713966
0.7	1.725627924	0.060077356	-8.487724675	-0.048893147	-0.077623434	0.007411896
0.72	1.715224585	0.062822505	-8.459884389	-0.048706372	-0.076731835	0.007681658
0.74	1.705228996	0.065595208	-8.433421983	-0.048498262	-0.075783174	0.007948842
0.76	1.695642496	0.068395096	-8.40834327	-0.048270773	-0.074783984	0.008213351
0.78	1.686464954	0.071221825	-8.384649464	-0.048025691	-0.073740452	0.008475097
0.8	1.677694906	0.074075074	-8.362337517	-0.047764649	-0.072658424	0.008734
0.82	1.669329679	0.076954538	-8.341400447	-0.047489139	-0.071543413	0.008989984
0.84	1.661365508	0.079859929	-8.32182765	-0.047200522	-0.070400608	0.009242976
0.86	1.653797652	0.082790969	-8.303605208	-0.046900041	-0.069234881	0.00949291
0.88	1.646620493	0.08574739	-8.286716178	-0.046588828	-0.068050794	0.009739719
0.9	1.639827634	0.088728929	-8.271140874	-0.046267917	-0.066852614	0.009983341
0.92	1.633411991	0.091735329	-8.256857133	-0.045938249	-0.065644317	0.010223715
0.94	1.627365875	0.094766333	-8.243840571	-0.045600681	-0.064429602	0.010460779
0.96	1.621681072	0.097821685	-8.232064829	-0.045255993	-0.063211895	0.010694476
0.98	1.616348913	0.100901127	-8.221501802	-0.044904896	-0.061994368	0.010924747
1	1.611360342	0.104004395	-8.212121859	-0.044548036	-0.060779941	0.011151533
1.02	1.606705981	0.107131223	-8.203894052	-0.044186	-0.059571297	0.011374778
1.04	1.60237618	0.110281336	-8.196786313	-0.043819322	-0.058370891	0.011594424
1.06	1.598361074	0.113454452	-8.190765638	-0.043448486	-0.057180956	0.011810415
1.08	1.594650634	0.11665028	-8.185798258	-0.043073933	-0.056003523	0.012022693
1.1	1.591234705	0.11986852	-8.181849811	-0.042696064	-0.054840418	0.012231203
1.12	1.588103049	0.123108859	-8.178885484	-0.042315241	-0.053693283	0.012435888
1.14	1.585245386	0.126370976	-8.176870163	-0.041931793	-0.052563578	0.012636693
1.16	1.582651423	0.129654534	-8.175768565	-0.041546021	-0.051452594	0.012833563
1.18	1.580310887	0.132959188	-8.175545356	-0.041158195	-0.050361462	0.013026444
1.2	1.578213554	0.136284576	-8.17616527	-0.040768563	-0.049291161	0.013215282
1.22	1.576349274	0.139630326	-8.177593213	-0.040377348	-0.048242524	0.013400024
1.24	1.574707994	0.142996051	-8.179794357	-0.039984754	-0.047216254	0.013580619
1.26	1.57327978	0.146381351	-8.182734232	-0.039590966	-0.046212924	0.013757014
1.28	1.572054836	0.149785812	-8.186378804	-0.039196153	-0.045232989	0.013929162
1.3	1.571023521	0.153209007	-8.190694547	-0.038800469	-0.044276794	0.014097014
1.32	1.570176364	0.156650496	-8.195648513	-0.038404054	-0.043344579	0.014260522
1.34	1.569504078	0.160109825	-8.201208387	-0.038007037	-0.04243649	0.014419643
1.36	1.568997571	0.163586526	-8.207342541	-0.037609535	-0.041552582	0.014574332
1.38	1.568647961	0.16708012	-8.214020083	-0.037211656	-0.040692826	0.014724547
1.4	1.568446581	0.170590115	-8.221210893	-0.036813501	-0.03985712	0.01487025
1.42	1.568384987	0.174116005	-8.228885662	-0.036415162	-0.039045288	0.015011403
1.44	1.568454969	0.177657274	-8.237015921	-0.036016723	-0.038257092	0.015147969
1.46	1.568648554	0.181213394	-8.245574065	-0.035618265	-0.037492234	0.015279916
1.48	1.56895801	0.184783825	-8.254533377	-0.035219862	-0.036750362	0.015407214
1.5	1.569375855	0.188368017	-8.26386804	-0.034821584	-0.036031079	0.015529832
1.52	1.569894852	0.191965411	-8.273553152	-0.034423498	-0.03533394	0.015647746
1.54	1.570508019	0.195575436	-8.283564734	-0.034025666	-0.034658464	0.015760931
1.56	1.571208626	0.199197513	-8.293879736	-0.033628148	-0.034004135	0.015869368
1.58	1.571990196	0.202831056	-8.304476038	-0.033231002	-0.033370405	0.015973036
1.6	1.572846508	0.206475469	-8.315332446	-0.032834281	-0.032756703	0.016071921
1.62	1.573771593	0.210130148	-8.326428693	-0.032438041	-0.032162433	0.01616601
1.64	1.574759733	0.213794485	-8.337745431	-0.032042333	-0.031586981	0.016255292
1.66	1.575805462	0.217467862	-8.349264219	-0.031647207	-0.031029717	0.01633976
1.68	1.576903561	0.221149657	-8.360967517	-0.031252713	-0.030489997	0.016419409
1.7	1.578049057	0.224839244	-8.372838667	-0.030858901	-0.029967171	0.016494237
1.72	1.579237216	0.228535991	-8.384861884	-0.030465819	-0.02946058	0.016564245
1.74	1.580463547	0.232239262	-8.397022236	-0.030073513	-0.028969559	0.016629435
1.76	1.581723789	0.235948417	-8.409305628	-0.029682033	-0.028493445	0.016689815
1.78	1.583013913	0.239662815	-8.421698781	-0.029291425	-0.028031572	0.016745394
1.8	1.584330115	0.243381812	-8.434189213	-0.028901736	-0.027583279	0.016796182
1.82	1.585668809	0.24710476	-8.446765218	-0.028513014	-0.027147908	0.016842195
1.84	1.587026627	0.250831013	-8.459415844	-0.028125304	-0.026724807	0.016883448
1.86	1.588400408	0.254559923	-8.472130868	-0.027738656	-0.026313332	0.016919962
1.88	1.589787195	0.258290842	-8.484900777	-0.027353115	-0.02591285	0.016951759
1.9	1.59118423	0.262023123	-8.497716739	-0.026968729	-0.025522736	0.016978862
1.92	1.592588947	0.265756118	-8.510570581	-0.026585545	-0.025142379	0.0170013
1.94	1.593998962	0.269489182	-8.523454767	-0.02620361	-0.024771178	0.017019101
1.96	1.595412075	0.273221672	-8.536362368	-0.025822972	-0.02440855	0.017032298
1.98	1.596826255	0.276952948	-8.549287042	-0.025443679	-0.024053923	0.017040924
2	1.598145509	0.292070106	-8.379008861	-0.024144355	-0.02239407	0.017069871
2.02	1.600250419	0.294738632	-8.407223856	-0.018580153	-0.014463913	0.017179356
2.04	1.604134648	0.297339973	-8.440780994	-0.01349278	-0.006962227	0.017230748
2.06	1.609668901	0.299872035	-8.479218785	-0.008841663	0.000119239	0.017230096
2.08	1.616729917	0.302332953	-8.522092673	-0.004589699	0.006789388	0.017182863
2.1	1.625199927	0.304721093	-8.568975316	-0.000702968	0.01305769	0.017093985
2.12	1.63496619	0.307035051	-8.61945677	0.002849546	0.018934111	0.016967914
2.14	1.645920593	0.309273647	-8.673144583	0.00609619	0.024429044	0.016808661
2.16	1.657959316	0.311435915	-8.729663825	0.009062879	0.02955325	0.01661984
2.18	1.670982558	0.313521093	-8.788657051	0.011773294	0.034317796	0.016404702
2.2	1.684894312	0.31552861	-8.849784201	0.014249082	0.03873401	0.01616617
2.22	1.699602186	0.317458072	-8.912722457	0.016510021	0.042813427	0.015906868
2.24	1.71501727	0.319309249	-8.977166043	0.018574187	0.046567751	0.015629153
2.26	1.731054028	0.321082058	-9.042825994	0.020458098	0.050008811	0.015335136
2.28	1.747630229	0.322776551	-9.10942988	0.022176845	0.053148525	0.015026711
2.3	1.764666893	0.324392902	-9.176721504	0.023744222	0.055998862	0.014705572
2.32	1.782088263	0.325931391	-9.244460567	0.02517283	0.058571815	0.014373238
2.34	1.799821786	0.327392393	-9.312422307	0.026474186	0.060879366	0.014031064
2.36	1.817798107	0.328776368	-9.380397115	0.027658813	0.062933457	0.013680264
2.38	1.835951069	0.330083845	-9.448190134	0.028736329	0.064745967	0.013321923
2.4	1.854217717	0.331315418	-9.515620837	0.029715523	0.066328686	0.012957012
2.42	1.872538303	0.332471731	-9.582522592	0.030604429	0.067693286	0.012586399
2.44	1.890856289	0.333553473	-9.64874221	0.03141039	0.068851308	0.01221086
2.46	1.90911835	0.334561369	-9.714139494	0.032140118	0.069814132	0.011831091
2.48	1.927274365	0.335496175	-9.778586761	0.032799751	0.070592963	0.011447716
2.5	1.945277408	0.336358668	-9.841968376	0.0333949	0.071198813	0.011061297
2.52	1.963083734	0.337149643	-9.904180268	0.033930696	0.071642479	0.010672339
2.54	1.980652746	0.337869912	-9.965129449	0.034411832	0.071934534	0.010281298
2.56	1.997946971	0.338520292	-10.02473353	0.034842602	0.072085304	0.009888588
2.58	2.014932011	0.339101607	-10.08292025	0.035226933	0.072104864	0.009494586
2.6	2.031576496	0.339614685	-10.13962695	0.03556842	0.072003018	0.009099635
2.62	2.047852028	0.340060352	-10.19480016	0.035870353	0.071789291	0.008704052
2.64	2.063733109	0.340439436	-10.24839508	0.036135743	0.071472919	0.008308129
2.66	2.079197075	0.340752757	-10.30037509	0.036367348	0.07106284	0.007912136
2.68	2.09422401	0.341001136	-10.35071136	0.036567693	0.070567684	0.007516328
2.7	2.108796662	0.341185385	-10.39938232	0.036739094	0.069995772	0.007120942
2.72	2.122900349	0.341306312	-10.44637325	0.03688367	0.069355103	0.006726206
2.74	2.136522863	0.341364719	-10.49167582	0.037003367	0.068653356	0.006332335
2.76	2.149654364	0.3413614	-10.53528769	0.037099966	0.067897884	0.005939534
2.78	2.162287277	0.341297147	-10.57721207	0.037175104	0.06709571	0.005548005
2.8	2.174416182	0.341172742	-10.61745731	0.037230282	0.066253531	0.005157939
2.82	2.186037701	0.340988965	-10.65603652	0.037266878	0.065377711	0.004769526
2.84	2.197150385	0.34074659	-10.69296718	0.037286159	0.064474287	0.004382949
2.86	2.207754599	0.340446388	-10.72827076	0.037289287	0.063548969	0.003998389
2.88	2.217852407	0.340089126	-10.76197238	0.037277333	0.062607143	0.003616025
2.9	2.227447457	0.339675569	-10.79410045	0.037251282	0.061653872	0.003236033
2.92	2.236544863	0.33920648	-10.82468633	0.037212041	0.060693904	0.002858585
2.94	2.245151096	0.338682622	-10.85376405	0.037160444	0.059731676	0.002483855
2.96	2.253273871	0.338104758	-10.88136998	0.037097262	0.058771316	0.002112012
2.98	2.260922033	0.33747365	-10.90754252	0.037023205	0.057816654	0.001743226
3	2.268105454	0.336790065	-10.93232185	0.03693893	0.056871228	0.001377664
3.02	2.27444594	0.336054491	-10.95133554	0.036845042	0.055932604	0.001015485
3.04	2.280375255	0.33526745	-10.96911664	0.036742091	0.054998289	0.000656827
3.06	2.28590237	0.334429758	-10.98569975	0.036630586	0.054071336	0.000301819
3.08	2.291037014	0.333542232	-11.00112076	0.036510999	0.053154548	-4.94E-05
3.1	2.295789581	0.332605688	-11.01541665	0.036383769	0.052250487	-0.000396727
3.12	2.300171052	0.331620945	-11.02862526	0.036249303	0.051361486	-0.000740008
3.14	2.304192911	0.330588825	-11.04078515	0.036107983	0.050489652	-0.001079124
3.16	2.307867069	0.329510152	-11.05193536	0.035960163	0.049636877	-0.001413949
3.18	2.311205789	0.328385753	-11.06211526	0.035806175	0.048804846	-0.001744359
3.2	2.314221617	0.32721646	-11.07136441	0.03564633	0.047995043	-0.002070231
3.22	2.316927318	0.326003109	-11.0797224	0.03548092	0.047208764	-0.002391446
3.24	2.319335808	0.32474654	-11.08722867	0.035310219	0.046447122	-0.002707886
3.26	2.321460101	0.323447598	-11.09392247	0.035134484	0.045711057	-0.003019436
3.28	2.32331325	0.322107135	-11.09984264	0.034953958	0.045001348	-0.003325983
3.3	2.324908299	0.320726008	-11.1050276	0.034768873	0.044318617	-0.00362742
3.32	2.326258233	0.319305077	-11.10951518	0.034579444	0.043663339	-0.00392364
3.34	2.327375937	0.317845212	-11.11334254	0.034385879	0.043035854	-0.004214542
3.36	2.328274154	0.316347284	-11.11654614	0.034188375	0.042436372	-0.004500029
3.38	2.328965446	0.314812173	-11.1191616	0.033987117	0.041864983	-0.004780007
3.4	2.329462166	0.313240764	-11.12122368	0.033782284	0.041321666	-0.005054387
3.42	2.329776424	0.311633945	-11.12276621	0.033574048	0.040806295	-0.005323084
3.44	2.329920063	0.309992612	-11.12382203	0.033362572	0.040318649	-0.005586018
3.46	2.32990463	0.308317665	-11.12442296	0.033148013	0.03985842	-0.005843114
3.48	2.329741363	0.306610008	-11.12459977	0.032930521	0.039425217	-0.006094302
3.5	2.329441166	0.304870549	-11.12438213	0.032710243	0.039018579	-0.006339516
3.52	2.329014596	0.303100201	-11.1237986	0.03248732	0.038637977	-0.006578696
3.54	2.328471853	0.30129988	-11.12287662	0.032261886	0.038282823	-0.006811787
3.56	2.327822762	0.299470505	-11.12164248	0.032034075	0.037952477	-0.00703874
3.58	2.327076775	0.297612998	-11.12012132	0.031804013	0.03764625	-0.00725951
3.6	2.326242956	0.295728281	-11.11833713	0.031571824	0.037363416	-0.007474057
3.62	2.325329981	0.293817281	-11.11631274	0.031337631	0.037103211	-0.007682349
3.64	2.324346134	0.291880924	-11.11406984	0.031101549	0.036864844	-0.007884357
3.66	2.32329931	0.289920136	-11.11162898	0.030863694	0.036647496	-0.008080057
3.68	2.322197009	0.287935845	-11.1090096	0.030624177	0.036450331	-0.008269431
3.7	2.321046346	0.285928976	-11.10623002	0.030383108	0.036272497	-0.008452468
3.72	2.319854048	0.283900455	-11.10330745	0.030140593	0.03611313	-0.008629159
3.74	2.318626466	0.281851204	-11.10025806	0.029896737	0.035971362	-0.008799503
3.76	2.317369573	0.279782144	-11.09709696	0.029651643	0.035846317	-0.008963502
3.78	2.316088976	0.277694193	-11.09383824	0.02940541	0.035737124	-0.009121164
3.8	2.314789925	0.275588264	-11.090495	0.029158136	0.035642911	-0.009272502
3.82	2.313477316	0.273465268	-11.08707937	0.028909919	0.035562815	-0.009417533
3.84	2.312155706	0.271326109	-11.08360255	0.028660851	0.03549598	-0.009556278
3.86	2.310829319	0.269171688	-11.08007483	0.028411026	0.035441563	-0.009688766
3.88	2.309502057	0.267002896	-11.07650563	0.028160535	0.035398734	-0.009815027
3.9	2.308177515	0.264820623	-11.07290354	0.027909466	0.035366677	-0.009935096
3.92	2.306858984	0.262625746	-11.06927634	0.027657906	0.035344595	-0.010049014
3.94	2.305549469	0.26041914	-11.06563103	0.027405943	0.035331709	-0.010156823
3.96	2.304251699	0.258201667	-11.06197389	0.027153658	0.035327262	-0.010258572
3.98	2.302968138	0.255974183	-11.05831049	0.026901136	0.035330515	-0.010354312
4	2.301700995	0.253737534	-11.05464572	0.026648456	0.035340755	-0.010444098
4.02	2.30045224	0.251492555	-11.05098386	0.026395698	0.035357291	-0.010527988
4.04	2.299223612	0.249240074	-11.04732857	0.02614294	0.035379456	-0.010606045
4.06	2.298016633	0.246980906	-11.04368296	0.025890256	0.035406608	-0.010678334
4.08	2.296832619	0.244715854	-11.0400496	0.025637723	0.03543813	-0.010744923
4.1	2.29567269	0.242445711	-11.03643056	0.025385412	0.03547343	-0.010805882
4.12	2.294537783	0.240171258	-11.03282744	0.025133394	0.035511944	-0.010861287
4.14	2.293428665	0.237893264	-11.0292414	0.02488174	0.035553131	-0.010911212
4.16	2.292345938	0.235612484	-11.0256732	0.024630518	0.035596478	-0.010955738
4.18	2.291290056	0.233329661	-11.02212323	0.024379793	0.035641495	-0.010994946
4.2	2.29026133	0.231045525	-11.01859152	0.02412963	0.03568772	-0.011028919
4.22	2.289259943	0.22876079	-11.01507778	0.023880094	0.035734716	-0.011057742
4.24	2.288285956	0.226476159	-11.01158144	0.023631244	0.03578207	-0.011081503
4.26	2.287339319	0.224192319	-11.00810164	0.023383142	0.035829393	-0.011100291
4.28	2.286419879	0.221909944	-11.00463731	0.023135846	0.035876321	-0.011114198
4.3	2.285527393	0.219629692	-11.00118714	0.022889412	0.035922514	-0.011123315
4.32	2.284661528	0.217352206	-10.99774962	0.022643895	0.035967654	-0.011127736
4.34	2.283821878	0.215078116	-10.99432308	0.022399349	0.036011445	-0.011127556
4.36	2.283007966	0.212808034	-10.9909057	0.022155825	0.036053614	-0.011122871
4.38	2.282219254	0.21054256	-10.98749552	0.021913375	0.036093909	-0.011113779
4.4	2.281455148	0.208282275	-10.98409047	0.021672045	0.036132096	-0.011100377
4.42	2.280715007	0.206027747	-10.98068838	0.021431884	0.036167963	-0.011082765
4.44	2.279998149	0.203779528	-10.97728701	0.021192937	0.036201318	-0.011061041
4.46	2.279303855	0.201538154	-10.97388404	0.020955246	0.036231983	-0.011035307
4.48	2.278631374	0.199304144	-10.97047713	0.020718854	0.0362598	-0.011005661
4.5	2.277979934	0.197078003	-10.96706389	0.020483802	0.03628463	-0.010972207
4.52	2.27734874	0.19486022	-10.96364189	0.020250128	0.036306345	-0.010935044
4.54	2.276736984	0.192651269	-10.96020872	0.020017869	0.036324835	-0.010894275
4.56	2.276143846	0.190451605	-10.95676196	0.019787061	0.036340005	-0.01085
4.58	2.275568498	0.18826167	-10.9532992	0.019557737	0.036351771	-0.010802322
4.6	2.275010111	0.186081891	-10.94981806	0.01932993	0.036360065	-0.010751341
4.62	2.274467855	0.183912678	-10.94631618	0.01910367	0.036364829	-0.01069716
4.64	2.273940904	0.181754424	-10.94279123	0.018878987	0.036366018	-0.01063988
4.66	2.273428439	0.17960751	-10.93924096	0.018655908	0.036363595	-0.010579601
4.68	2.27292965	0.177472299	-10.93566314	0.018434459	0.036357537	-0.010516425
4.7	2.272443738	0.175349141	-10.9320556	0.018214665	0.036347827	-0.010450451
4.72	2.271969918	0.173238367	-10.92841624	0.017996548	0.036334459	-0.010381779
4.74	2.27150742	0.171140298	-10.92474303	0.017780129	0.036317433	-0.010310509
4.76	2.271055494	0.169055236	-10.921034	0.017565429	0.03629676	-0.010236738
4.78	2.270613407	0.166983471	-10.91728727	0.017352467	0.036272453	-0.010160566
4.8	2.270180446	0.164925276	-10.91350101	0.017141258	0.036244536	-0.01008209
4.82	2.269755921	0.162880913	-10.90967349	0.016931818	0.036213036	-0.010001406
4.84	2.269339164	0.160850627	-10.90580306	0.016724162	0.036177986	-0.00991861
4.86	2.26892953	0.15883465	-10.90188815	0.016518302	0.036139424	-0.009833798
4.88	2.2685264	0.156833199	-10.89792727	0.016314249	0.036097392	-0.009747064
4.9	2.268129176	0.154846479	-10.893919	0.016112013	0.036051935	-0.0096585
4.92	2.267737288	0.152874682	-10.88986204	0.015911603	0.036003104	-0.009568201
4.94	2.26735019	0.150917984	-10.88575513	0.015713026	0.03595095	-0.009476257
4.96	2.266967363	0.14897655	-10.88159713	0.015516287	0.035895528	-0.009382759
4.98	2.266588312	0.147050533	-10.87738697	0.015321392	0.035836894	-0.009287797
5	2.266212567	0.14514007	-10.87312365	0.015128343	0.035775108	-0.00919146
5.02	2.265839686	0.14324529	-10.86880627	0.014937143	0.03571023	-0.009093835
5.04	2.265469248	0.141366307	-10.86443399	0.014747793	0.035642321	-0.008995009
5.06	2.265100859	0.139503224	-10.86000606	0.014560291	0.035571443	-0.008895067
5.08	2.264734152	0.137656131	-10.8555218	0.014374638	0.03549766	-0.008794095
5.1	2.264368779	0.135825109	-10.85098062	0.014190829	0.035421034	-0.008692175
5.12	2.264004418	0.134010225	-10.84638199	0.014008862	0.03534163	-0.008589389
5.14	2.263640771	0.132211537	-10.84172543	0.013828731	0.03525951	-0.00848582
5.16	2.263277559	0.130429092	-10.83701057	0.013650431	0.035174737	-0.008381547
5.18	2.26291453	0.128662926	-10.83223707	0.013473955	0.035087374	-0.008276648
5.2	2.262551447	0.126913064	-10.82740467	0.013299294	0.034997484	-0.008171202
5.22	2.262188097	0.125179522	-10.82251317	0.013126439	0.034905126	-0.008065286
5.24	2.261824286	0.123462307	-10.81756242	0.012955382	0.034810362	-0.007958975
5.26	2.261459839	0.121761414	-10.81255234	0.01278611	0.034713251	-0.007852342
5.28	2.261094599	0.12007683	-10.8074829	0.012618612	0.03461385	-0.007745462
5.3	2.260728427	0.118408534	-10.8023541	0.012452875	0.034512218	-0.007638406
5.32	2.260361199	0.116756494	-10.79716602	0.012288886	0.034408408	-0.007531245
5.34	2.259992809	0.115120671	-10.79191877	0.012126631	0.034302476	-0.007424049
5.36	2.259623164	0.113501017	-10.78661251	0.011966093	0.034194474	-0.007316886
5.38	2.259252188	0.111897476	-10.78124742	0.011807258	0.034084453	-0.007209823
5.4	2.258879817	0.110309983	-10.77582376	0.011650108	0.033972462	-0.007102927
5.42	2.258506	0.108738467	-10.77034178	0.011494626	0.033858551	-0.006996262
5.44	2.258130697	0.107182848	-10.76480181	0.011340794	0.033742765	-0.006889893
5.46	2.257753883	0.105643041	-10.75920418	0.011188592	0.03362515	-0.006783881
5.48	2.25737554	0.104118951	-10.75354925	0.011038001	0.033505748	-0.006678289
5.5	2.256995663	0.102610478	-10.74783744	0.010889001	0.033384601	-0.006573177
5.52	2.256614253	0.101117515	-10.74206916	0.010741571	0.033261748	-0.006468603
5.54	2.256231322	0.099639949	-10.73624486	0.01059569	0.03313723	-0.006364627
5.56	2.255846891	0.098177661	-10.73036501	0.010451336	0.033011081	-0.006261304
5.58	2.255460986	0.096730525	-10.72443011	0.010308485	0.032883337	-0.006158691
5.6	2.25507364	0.09529841	-10.71844066	0.010167115	0.032754033	-0.006056842
5.62	2.254684895	0.09388118	-10.71239719	0.010027203	0.032623199	-0.005955811
5.64	2.254294796	0.092478692	-10.70630025	0.009888724	0.032490867	-0.00585565
5.66	2.253903394	0.0910908	-10.70015038	0.009751654	0.032357066	-0.00575641
5.68	2.253510745	0.089717351	-10.69394815	0.009615967	0.032221823	-0.005658143
5.7	2.253116908	0.08835819	-10.68769415	0.009481639	0.032085164	-0.005560896
5.72	2.252721947	0.087013155	-10.68138896	0.009348644	0.031947116	-0.005464718
5.74	2.252325929	0.08568208	-10.67503318	0.009216955	0.031807701	-0.005369656
5.76	2.251928924	0.084364797	-10.66862741	0.009086547	0.031666942	-0.005275756
5.78	2.251531002	0.083061132	-10.66217226	0.008957391	0.03152486	-0.005183062
5.8	2.25113224	0.081770907	-10.65566835	0.008829462	0.031381476	-0.005091619
5.82	2.250732711	0.080493941	-10.64911629	0.008702731	0.031236808	-0.005001469
5.84	2.250332494	0.079230052	-10.64251671	0.008577171	0.031090874	-0.004912654
5.86	2.249931667	0.077979051	-10.63587022	0.008452754	0.030943691	-0.004825215
5.88	2.249530308	0.076740747	-10.62917746	0.008329452	0.030795275	-0.004739191
5.9	2.249128498	0.075514949	-10.62243904	0.008207236	0.030645641	-0.004654622
5.92	2.248726315	0.074301459	-10.6156556	0.008086078	0.030494803	-0.004571544
5.94	2.24832384	0.073100079	-10.60882776	0.007965949	0.030342775	-0.004489995
5.96	2.247921152	0.071910609	-10.60195614	0.00784682	0.030189569	-0.004410011
5.98	2.24751833	0.070732845	-10.59504136	0.007728662	0.030035197	-0.004331626
6	2.247115453	0.069566583	-10.58808404	0.007611445	0.02987967	-0.004254874
6.02	2.246712599	0.068411615	-10.5810848	0.007495141	0.029722999	-0.004179788
6.04	2.246309845	0.067267733	-10.57404426	0.007379719	0.029565193	-0.004106401
6.06	2.245907265	0.066134726	-10.56696301	0.007265151	0.029406262	-0.004034743
6.08	2.245504936	0.065012382	-10.55984168	0.007151407	0.029246214	-0.003964844
6.1	2.245102931	0.063900489	-10.55268085	0.007038456	0.029085059	-0.003896734
6.12	2.244701322	0.062798832	-10.54548114	0.00692627	0.028922804	-0.003830441
6.14	2.244300179	0.061707196	-10.53824313	0.006814819	0.028759456	-0.003765993
6.16	2.243899572	0.060625365	-10.53096741	0.006704072	0.028595022	-0.003703416
6.18	2.243499568	0.059553122	-10.52365456	0.006594	0.028429511	-0.003642736
6.2	2.243100235	0.058490248	-10.51630518	0.006484574	0.028262927	-0.003583978
6.22	2.242701635	0.057436527	-10.50891982	0.006375763	0.028095277	-0.003527166
6.24	2.242303833	0.05639174	-10.50149907	0.006267539	0.027926568	-0.003472324
6.26	2.241906888	0.055355668	-10.49404349	0.006159871	0.027756805	-0.003419473
6.28	2.241510862	0.054328092	-10.48655363	0.006052729	0.027585993	-0.003368636
6.3	2.24111581	0.053308793	-10.47903006	0.005946085	0.027414139	-0.003319833
6.32	2.240721791	0.052297553	-10.47147332	0.00583991	0.027241247	-0.003273085
6.34	2.240328857	0.051294152	-10.46388396	0.005734172	0.027067323	-0.003228411
6.36	2.239937061	0.050298373	-10.45626252	0.005628845	0.026892372	-0.003185829
6.38	2.239546456	0.049309997	-10.44860954	0.005523898	0.0267164	-0.003145357
6.4	2.239157089	0.048328808	-10.44092554	0.005419302	0.02653941	-0.003107012
6.42	2.23876901	0.047354588	-10.43321106	0.00531503	0.026361408	-0.003070811
6.44	2.238382263	0.046387121	-10.42546662	0.005211051	0.026182399	-0.003036769
6.46	2.237996895	0.045426192	-10.41769274	0.005107339	0.026002389	-0.003004901
6.48	2.237612948	0.044471587	-10.40988992	0.005003863	0.025821382	-0.002975221
6.5	2.237230464	0.043523092	-10.40205869	0.004900598	0.025639382	-0.002947743
6.52	2.236849484	0.042580495	-10.39419954	0.004797513	0.025456396	-0.002922479
6.54	2.236470045	0.041643584	-10.38631299	0.004694582	0.025272429	-0.002899442
6.56	2.236092187	0.040712151	-10.37839952	0.004591777	0.025087485	-0.002878643
6.58	2.235715946	0.039785986	-10.37045963	0.004489072	0.02490157	-0.002860093
6.6	2.235341356	0.038864881	-10.36249382	0.004386437	0.024714689	-0.002843803
6.62	2.234968451	0.037948632	-10.35450258	0.004283848	0.024526848	-0.002829781
6.64	2.234597266	0.037037034	-10.34648638	0.004181277	0.024338052	-0.002818037
6.66	2.234227831	0.036129885	-10.33844571	0.004078697	0.024148307	-0.002808579
6.68	2.233860177	0.035226983	-10.33038106	0.003976083	0.023957618	-0.002801416
6.7	2.233494334	0.03432813	-10.32229289	0.003873409	0.023765993	-0.002796553
6.72	2.23313033	0.033433128	-10.31418169	0.003770649	0.023573435	-0.002793999
6.74	2.232768195	0.032541782	-10.30604792	0.003667777	0.023379952	-0.002793758
6.76	2.232407955	0.031653899	-10.29789206	0.00356477	0.023185551	-0.002795837
6.78	2.232049636	0.030769286	-10.28971457	0.0034616	0.022990236	-0.00280024
6.8	2.231693264	0.029887755	-10.28151592	0.003358245	0.022794014	-0.002806972
6.82	2.231338864	0.029009118	-10.27329657	0.00325468	0.022596893	-0.002816037
6.84	2.23098646	0.028133191	-10.26505698	0.003150881	0.022398879	-0.002827438
6.86	2.230636076	0.02725979	-10.25679762	0.003046824	0.022199979	-0.002841178
6.88	2.230287735	0.026388734	-10.24851894	0.002942485	0.022000199	-0.00285726
6.9	2.22994146	0.025519846	-10.2402214	0.002837843	0.021799547	-0.002875686
6.92	2.229597273	0.024652949	-10.23190546	0.002732873	0.02159803	-0.002896456
6.94	2.229255196	0.023787869	-10.22357157	0.002627555	0.021395655	-0.002919572
6.96	2.228915249	0.022924437	-10.21522018	0.002521864	0.02119243	-0.002945035
6.98	2.228577454	0.022062482	-10.20685175	0.00241578	0.020988362	-0.002972844
7	2.228241831	0.021201838	-10.19846672	0.002309282	0.020783459	-0.003003
7.02	2.227908401	0.020342343	-10.19006556	0.002202347	0.020577729	-0.003035501
7.04	2.227577184	0.019483835	-10.1816487	0.002094955	0.02037118	-0.003070347
7.06	2.227248199	0.018626156	-10.1732166	0.001987086	0.02016382	-0.003107536
7.08	2.226921466	0.017769149	-10.1647697	0.00187872	0.019955656	-0.003147066
7.1	2.226597004	0.016912661	-10.15630846	0.001769836	0.019746698	-0.003188934
7.12	2.226274832	0.016056543	-10.14783331	0.001660416	0.019536953	-0.003233139
7.14	2.225954969	0.015200646	-10.13934471	0.001550439	0.01932643	-0.003279676
7.16	2.225637435	0.014344825	-10.1308431	0.001439888	0.019115138	-0.003328543
7.18	2.225322248	0.013488939	-10.12232893	0.001328743	0.018903084	-0.003379735
7.2	2.225009427	0.012632846	-10.11380264	0.001216987	0.018690279	-0.003433249
7.22	2.224698989	0.011776412	-10.10526467	0.001104602	0.01847673	-0.00348908
7.24	2.224390955	0.010919501	-10.09671547	0.000991571	0.018262446	-0.003547223
7.26	2.224085342	0.010061983	-10.08815549	0.000877876	0.018047438	-0.003607674
7.28	2.223782168	0.00920373	-10.07958516	0.000763501	0.017831712	-0.003670427
7.3	2.223481453	0.008344616	-10.07100494	0.00064843	0.01761528	-0.003735475
7.32	2.223183215	0.007484518	-10.06241526	0.000532646	0.01739815	-0.003802814
7.34	2.222887472	0.006623317	-10.05381656	0.000416134	0.017180331	-0.003872437
7.36	2.222594242	0.005760896	-10.04520929	0.000298878	0.016961832	-0.003944338
7.38	2.222303545	0.004897142	-10.03659389	0.000180865	0.016742664	-0.004018509
7.4	2.222015398	0.004031942	-10.02797081	6.21E-05	0.016522836	-0.004094943
7.42	2.22172982	0.003165189	-10.01934048	-5.75E-05	0.016302356	-0.004173634
7.44	2.221446829	0.002296778	-10.01070334	-0.00017787	0.016081236	-0.004254573
7.46	2.221166445	0.001426606	-10.00205984	-0.000299058	0.015859483	-0.004337754
7.48	2.220888685	0.000554574	-9.993410417	-0.000421074	0.015637109	-0.004423167
7.5	2.220613569	-0.000319415	-9.984755513	-0.00054393	0.015414124	-0.004510805
7.52	2.220341114	-0.001195454	-9.976095567	-0.000667639	0.015190535	-0.00460066
7.54	2.22007134	-0.002073635	-9.96743102	-0.000792212	0.014966355	-0.004692722
7.56	2.219804266	-0.002954045	-9.958762312	-0.000917662	0.014741592	-0.004786982
7.58	2.21953991	-0.00383677	-9.950089882	-0.001043999	0.014516257	-0.004883433
7.6	2.21927829	-0.004721891	-9.941414169	-0.001171234	0.01429036	-0.004982064
7.62	2.219019426	-0.005609488	-9.932735613	-0.001299379	0.01406391	-0.005082865
7.64	2.218763336	-0.006499638	-9.924054651	-0.001428443	0.013836918	-0.005185829
7.66	2.21851004	-0.007392413	-9.915371722	-0.001558436	0.013609394	-0.005290944
7.68	2.218259555	-0.008287886	-9.906687264	-0.001689368	0.013381348	-0.0053982
7.7	2.218011901	-0.009186123	-9.898001714	-0.001821247	0.01315279	-0.005507589
7.72	2.217767097	-0.010087191	-9.889315508	-0.001954084	0.012923731	-0.005619099
7.74	2.217525161	-0.010991151	-9.880629083	-0.002087886	0.012694181	-0.00573272
7.76	2.217286112	-0.011898063	-9.871942875	-0.002222661	0.01246415	-0.005848441
7.78	2.217049968	-0.012807983	-9.863257318	-0.002358418	0.012233648	-0.005966253
7.8	2.216816749	-0.013720967	-9.854572849	-0.002495163	0.012002686	-0.006086143
7.82	2.216586473	-0.014637065	-9.845889901	-0.002632903	0.011771274	-0.006208102
7.84	2.216359159	-0.015556326	-9.837208906	-0.002771646	0.011539423	-0.006332118
7.86	2.216134824	-0.016478795	-9.8285303	-0.002911398	0.011307144	-0.006458179
7.88	2.215913488	-0.017404517	-9.819854512	-0.003052165	0.011074445	-0.006586276
7.9	2.215695169	-0.01833353	-9.811181976	-0.003193952	0.010841339	-0.006716396
7.92	2.215479885	-0.019265875	-9.802513121	-0.003336766	0.010607835	-0.006848528
7.94	2.215267654	-0.020201584	-9.793848377	-0.00348061	0.010373944	-0.00698266
7.96	2.215058495	-0.021140692	-9.785188174	-0.00362549	0.010139677	-0.007118781
7.98	2.214852424	-0.022083229	-9.77653294	-0.00377141	0.009905044	-0.007256879
8	2.21464946	-0.023029221	-9.767883102	-0.003918374	0.009670056	-0.007396942
8.02	2.214449621	-0.023978693	-9.759239087	-0.004066387	0.009434723	-0.007538958
8.04	2.214252923	-0.024931669	-9.75060132	-0.00421545	0.009199057	-0.007682915
8.06	2.214059385	-0.025888167	-9.741970226	-0.004365568	0.008963067	-0.007828802
8.08	2.213869023	-0.026848205	-9.733346229	-0.004516743	0.008726764	-0.007976605
8.1	2.213681854	-0.027811799	-9.724729751	-0.004668977	0.00849016	-0.008126313
8.12	2.213497894	-0.02877896	-9.716121213	-0.004822273	0.008253264	-0.008277914
8.14	2.213317161	-0.029749699	-9.707521036	-0.004976633	0.008016088	-0.008431395
8.16	2.213139671	-0.030724024	-9.69892964	-0.005132057	0.007778643	-0.008586743
8.18	2.212965439	-0.031701938	-9.690347441	-0.005288547	0.007540938	-0.008743947
8.2	2.212794481	-0.032683447	-9.681774858	-0.005446105	0.007302986	-0.008902993
8.22	2.212626813	-0.033668549	-9.673212306	-0.005604729	0.007064796	-0.00906387
8.24	2.21246245	-0.034657244	-9.6646602	-0.005764422	0.006826379	-0.009226564
8.26	2.212301408	-0.035649528	-9.656118951	-0.005925182	0.006587747	-0.009391063
8.28	2.212143699	-0.036645394	-9.647588973	-0.006087009	0.00634891	-0.009557354
8.3	2.21198934	-0.037644834	-9.639070676	-0.006249902	0.00610988	-0.009725425
8.32	2.211838344	-0.038647838	-9.630564469	-0.006413862	0.005870666	-0.009895262
8.34	2.211690724	-0.039654392	-9.622070759	-0.006578885	0.00563128	-0.010066853
8.36	2.211546494	-0.040664481	-9.613589953	-0.006744972	0.005391733	-0.010240185
8.38	2.211405668	-0.041678089	-9.605122455	-0.006912119	0.005152036	-0.010415245
8.4	2.211268257	-0.042695197	-9.596668669	-0.007080325	0.0049122	-0.01059202
8.42	2.211134274	-0.043715783	-9.588228996	-0.007249588	0.004672236	-0.010770497
8.44	2.21100373	-0.044739824	-9.579803837	-0.007419904	0.004432154	-0.010950663
8.46	2.210876638	-0.045767295	-9.57139359	-0.007591271	0.004191966	-0.011132505
8.48	2.210753008	-0.046798169	-9.562998653	-0.007763685	0.003951683	-0.01131601
8.5	2.210632851	-0.047832416	-9.554619419	-0.007937144	0.003711316	-0.011501165
8.52	2.210516178	-0.048870005	-9.546256284	-0.008111642	0.003470876	-0.011687957
8.54	2.210402997	-0.049910903	-9.537909638	-0.008287176	0.003230374	-0.011876371
8.56	2.210293318	-0.050955075	-9.529579873	-0.008463742	0.002989821	-0.012066397
8.58	2.21018715	-0.052002485	-9.521267376	-0.008641335	0.002749229	-0.012258019
8.6	2.210084501	-0.053053094	-9.512972533	-0.00881995	0.002508608	-0.012451225
8.62	2.20998538	-0.054106861	-9.504695731	-0.008999583	0.00226797	-0.012646001
8.64	2.209889793	-0.055163745	-9.496437352	-0.009180226	0.002027325	-0.012842335
8.66	2.209797748	-0.0562237	-9.488197776	-0.009361876	0.001786686	-0.013040213
8.68	2.20970925	-0.057286682	-9.479977383	-0.009544525	0.001546063	-0.013239621
8.7	2.209624306	-0.058352643	-9.47177655	-0.009728169	0.001305468	-0.013440547
8.72	2.209542921	-0.059421534	-9.463595653	-0.009912799	0.001064911	-0.013642976
8.74	2.209465099	-0.060493305	-9.455435065	-0.010098411	0.000824404	-0.013846895
8.76	2.209390844	-0.061567902	-9.447295157	-0.010284996	0.000583959	-0.014052292
8.78	2.209320161	-0.062645273	-9.439176298	-0.010472547	0.000343587	-0.014259152
8.8	2.209253053	-0.063725361	-9.431078856	-0.010661058	0.000103298	-0.014467461
8.82	2.20918952	-0.064808109	-9.423003196	-0.01085052	-0.000136895	-0.014677208
8.84	2.209129567	-0.065893459	-9.414949681	-0.011040926	-0.000376981	-0.014888376
8.86	2.209073192	-0.066981351	-9.406918671	-0.011232267	-0.000616949	-0.015100955
8.88	2.209020398	-0.068071723	-9.398910526	-0.011424535	-0.000856787	-0.015314928
8.9	2.208971184	-0.069164512	-9.390925601	-0.011617722	-0.001096484	-0.015530284
8.92	2.208925548	-0.070259654	-9.382964253	-0.011811818	-0.001336029	-0.015747008
8.94	2.208883491	-0.071357082	-9.375026831	-0.012006815	-0.00157541	-0.015965086
8.96	2.20884501	-0.07245673	-9.367113688	-0.012202702	-0.001814615	-0.016184506
8.98	2.208810101	-0.073558528	-9.359225169	-0.012399472	-0.002053633	-0.016405252
9	2.208778762	-0.074662407	-9.351361621	-0.012597113	-0.002292452	-0.016627311
9.02	2.208750989	-0.075768296	-9.343523386	-0.012795617	-0.002531062	-0.01685067
9.04	2.208726776	-0.076876122	-9.335710805	-0.012994972	-0.00276945	-0.017075315
9.06	2.208706119	-0.077985811	-9.327924217	-0.013195168	-0.003007604	-0.017301231
9.08	2.20868901	-0.079097288	-9.320163958	-0.013396195	-0.003245513	-0.017528405
9.1	2.208675444	-0.080210477	-9.31243036	-0.013598043	-0.003483166	-0.017756822
9.12	2.208665412	-0.0813253	-9.304723756	-0.013800698	-0.003720551	-0.017986469
9.14	2.208658905	-0.082441679	-9.297044473	-0.014004152	-0.003957655	-0.018217332
9.16	2.208655915	-0.083559534	-9.289392839	-0.014208392	-0.004194469	-0.018449396
9.18	2.208656432	-0.084678783	-9.281769176	-0.014413406	-0.004430978	-0.018682648
9.2	2.208660445	-0.085799345	-9.274173806	-0.014619182	-0.004667173	-0.018917073
9.22	2.208667942	-0.086921137	-9.266607047	-0.01482571	-0.00490304	-0.019152656
9.24	2.208678912	-0.088044074	-9.259069217	-0.015032975	-0.005138569	-0.019389385
9.26	2.20869334	-0.089168071	-9.251560628	-0.015240966	-0.005373748	-0.019627243
9.28	2.208711213	-0.090293042	-9.244081591	-0.01544967	-0.005608564	-0.019866218
9.3	2.208732517	-0.091418899	-9.236632415	-0.015659074	-0.005843006	-0.020106294
9.32	2.208757236	-0.092545553	-9.229213406	-0.015869166	-0.006077062	-0.020347457
9.34	2.208785353	-0.093672917	-9.221824866	-0.016079931	-0.006310721	-0.020589692
9.36	2.208816852	-0.094800898	-9.214467096	-0.016291356	-0.006543969	-0.020832986
9.38	2.208851714	-0.095929407	-9.207140395	-0.016503429	-0.006776796	-0.021077323
9.4	2.20888992	-0.09705835	-9.199845056	-0.016716134	-0.007009188	-0.021322688
9.42	2.208931451	-0.098187636	-9.192581374	-0.016929458	-0.007241136	-0.021569067
9.44	2.208976287	-0.099317169	-9.185349636	-0.017143386	-0.007472625	-0.021816445
9.46	2.209024405	-0.100446856	-9.178150131	-0.017357905	-0.007703645	-0.022064807
9.48	2.209075783	-0.1015766	-9.170983142	-0.017573	-0.007934183	-0.022314138
9.5	2.209130399	-0.102706306	-9.163848951	-0.017788655	-0.008164228	-0.022564424
9.52	2.209188228	-0.103835875	-9.156747836	-0.018004857	-0.008393767	-0.022815648
9.54	2.209249246	-0.10496521	-9.149680074	-0.01822159	-0.008622787	-0.023067796
9.56	2.209313425	-0.106094211	-9.142645937	-0.018438838	-0.008851278	-0.023320853
9.58	2.209380741	-0.107222781	-9.135645695	-0.018656586	-0.009079226	-0.023574803
9.6	2.209451165	-0.108350817	-9.128679617	-0.018874819	-0.00930662	-0.023829632
9.62	2.209524668	-0.109478219	-9.121747966	-0.019093521	-0.009533448	-0.024085323
9.64	2.209601221	-0.110604885	-9.114851004	-0.019312675	-0.009759696	-0.024341861
9.66	2.209680795	-0.111730713	-9.10798899	-0.019532266	-0.009985354	-0.02459923
9.68	2.209763356	-0.112855599	-9.101162179	-0.019752277	-0.010210409	-0.024857416
9.7	2.209848874	-0.11397944	-9.094370825	-0.019972693	-0.010434848	-0.025116401
9.72	2.209937316	-0.115102131	-9.087615178	-0.020193495	-0.01065866	-0.025376171
9.74	2.210028646	-0.116223567	-9.080895485	-0.020414668	-0.010881831	-0.025636709
9.76	2.210122831	-0.117343642	-9.074211989	-0.020636194	-0.01110435	-0.025898
9.78	2.210219834	-0.118462251	-9.067564933	-0.020858057	-0.011326204	-0.026160027
9.8	2.210319619	-0.119579285	-9.060954555	-0.021080239	-0.011547381	-0.026422774
9.82	2.210422147	-0.120694638	-9.054381089	-0.021302722	-0.011767869	-0.026686226
9.84	2.21052738	-0.121808202	-9.047844769	-0.02152549	-0.011987655	-0.026950365
9.86	2.210635279	-0.122919868	-9.041345823	-0.021748523	-0.012206727	-0.027215175
9.88	2.210745803	-0.124029526	-9.034884478	-0.021971806	-0.012425071	-0.02748064
9.9	2.21085891	-0.125137067	-9.028460957	-0.022195318	-0.012642677	-0.027746743
9.92	2.210974557	-0.126242381	-9.022075481	-0.022419043	-0.012859531	-0.028013468
9.94	2.211092702	-0.127345358	-9.015728268	-0.022642961	-0.013075621	-0.028280798
9.96	2.211213301	-0.128445885	-9.00941953	-0.022867055	-0.013290934	-0.028548715
9.98	2.211336307	-0.129543852	-9.003149481	-0.023091306	-0.013505458	-0.028817203
10	2.211461674	-0.130639147	-8.996918327	-0.023315694	-0.01371918	-0.029086246
10.02	2.211589356	-0.131731656	-8.990726275	-0.023540201	-0.013932087	-0.029355825
10.04	2.211719305	-0.132821267	-8.984573527	-0.023764808	-0.014144168	-0.029625924
10.06	2.21185147	-0.133907866	-8.978460281	-0.023989496	-0.014355409	-0.029896525
10.08	2.211985803	-0.13499134	-8.972386734	-0.024214246	-0.014565797	-0.03016761
10.1	2.212122253	-0.136071575	-8.96635308	-0.024439037	-0.014775321	-0.030439163
10.12	2.212260766	-0.137148456	-8.960359508	-0.02466385	-0.014983967	-0.030711166
10.14	2.212401292	-0.138221867	-8.954406205	-0.024888666	-0.015191722	-0.030983601
10.16	2.212543776	-0.139291695	-8.948493355	-0.025113464	-0.015398575	-0.03125645
10.18	2.212688163	-0.140357822	-8.942621139	-0.025338225	-0.015604512	-0.031529694
10.2	2.212834398	-0.141420134	-8.936789736	-0.025562928	-0.01580952	-0.031803318
10.22	2.212982425	-0.142478514	-8.930999319	-0.025787554	-0.016013587	-0.032077301
10.24	2.213132186	-0.143532844	-8.925250061	-0.026012081	-0.0162167	-0.032351626
10.26	2.213283623	-0.14458301	-8.919542131	-0.026236489	-0.016418846	-0.032626274
10.28	2.213436677	-0.145628892	-8.913875694	-0.026460758	-0.016620012	-0.032901228
10.3	2.213591287	-0.146670374	-8.908250913	-0.026684867	-0.016820185	-0.033176469
10.32	2.213747394	-0.147707337	-8.902667948	-0.026908794	-0.017019353	-0.033451977
10.34	2.213904934	-0.148739665	-8.897126955	-0.02713252	-0.017217503	-0.033727735
10.36	2.214063846	-0.149767238	-8.891628088	-0.027356022	-0.017414622	-0.034003723
10.38	2.214224066	-0.150789938	-8.886171497	-0.027579279	-0.017610696	-0.034279922
10.4	2.214385529	-0.151807647	-8.880757331	-0.027802271	-0.017805713	-0.034556315
10.42	2.214548171	-0.152820245	-8.875385733	-0.028024975	-0.01799966	-0.03483288
10.44	2.214711924	-0.153827614	-8.870056845	-0.02824737	-0.018192524	-0.0351096
10.46	2.214876723	-0.154829633	-8.864770806	-0.028469435	-0.018384292	-0.035386455
10.48	2.2150425	-0.155826184	-8.859527752	-0.028691147	-0.018574951	-0.035663426
10.5	2.215209185	-0.156817146	-8.854327815	-0.028912484	-0.018764488	-0.035940492
10.52	2.21537671	-0.157802401	-8.849171125	-0.029133426	-0.01895289	-0.036217635
10.54	2.215545005	-0.158781827	-8.844057808	-0.029353948	-0.019140144	-0.036494835
10.56	2.215713998	-0.159755305	-8.838987988	-0.02957403	-0.019326236	-0.036772072
10.58	2.215883618	-0.160722715	-8.833961787	-0.029793649	-0.019511155	-0.037049326
10.6	2.216053793	-0.161683936	-8.828979321	-0.030012783	-0.019694886	-0.037326577
10.62	2.216224449	-0.162638847	-8.824040707	-0.030231408	-0.019877417	-0.037603805
10.64	2.216395513	-0.163587328	-8.819146056	-0.030449503	-0.020058734	-0.03788099
10.66	2.216566909	-0.164529258	-8.814295478	-0.030667044	-0.020238825	-0.038158111
10.68	2.216738562	-0.165464517	-8.809489078	-0.03088401	-0.020417675	-0.03843515
10.7	2.216910397	-0.166392983	-8.804726961	-0.031100376	-0.020595273	-0.038712084
10.72	2.217082337	-0.167314536	-8.800009228	-0.031316121	-0.020771605	-0.038988893
10.74	2.217254303	-0.168229055	-8.795335975	-0.031531221	-0.020946657	-0.039265558
10.76	2.217426219	-0.169136418	-8.790707298	-0.031745653	-0.021120418	-0.039542056
10.78	2.217598006	-0.170036505	-8.78612329	-0.031959393	-0.021292872	-0.039818368
10.8	2.217769584	-0.170929195	-8.78158404	-0.032172419	-0.021464008	-0.040094473
10.82	2.217940873	-0.171814366	-8.777089635	-0.032384708	-0.021633811	-0.04037035
10.84	2.218111793	-0.172691897	-8.772640159	-0.032596235	-0.021802269	-0.040645977
10.86	2.218282263	-0.173561668	-8.768235693	-0.032806977	-0.021969369	-0.040921334
10.88	2.218452201	-0.174423557	-8.763876316	-0.033016911	-0.022135097	-0.0411964
10.9	2.218621526	-0.175277443	-8.759562104	-0.033226013	-0.022299441	-0.041471153
10.92	2.218790154	-0.176123206	-8.755293131	-0.033434259	-0.022462386	-0.041745572
10.94	2.218958003	-0.176960725	-8.751069466	-0.033641626	-0.022623919	-0.042019637
10.96	2.219124988	-0.177789878	-8.74689118	-0.033848091	-0.022784028	-0.042293324
10.98	2.219291026	-0.178610544	-8.742758336	-0.034053628	-0.022942699	-0.042566614
11	2.219456033	-0.179422604	-8.738670998	-0.034258214	-0.023099919	-0.042839484
11.02	2.219619923	-0.180225937	-8.734629227	-0.034461825	-0.023255675	-0.043111913
11.04	2.219782612	-0.181020421	-8.730633081	-0.034664438	-0.023409953	-0.04338388
11.06	2.219944013	-0.181805938	-8.726682615	-0.034866027	-0.023562739	-0.043655362
11.08	2.22010404	-0.182582365	-8.722777883	-0.03506657	-0.023714022	-0.043926338
11.1	2.220262608	-0.183349584	-8.718918934	-0.035266042	-0.023863787	-0.044196787
11.12	2.220419629	-0.184107475	-8.715105819	-0.035464418	-0.024012022	-0.044466685
11.14	2.220575017	-0.184855917	-8.711338581	-0.035661675	-0.024158713	-0.044736012
11.16	2.220728684	-0.18559479	-8.707617266	-0.035857788	-0.024303846	-0.045004746
11.18	2.220880544	-0.186323977	-8.703941915	-0.036052734	-0.024447409	-0.045272865
11.2	2.221030508	-0.187043356	-8.700312566	-0.036246487	-0.024589389	-0.045540346
11.22	2.221178489	-0.187752809	-8.696729257	-0.036439023	-0.024729771	-0.045807169
11.24	2.221324399	-0.188452218	-8.693192022	-0.036630319	-0.024868544	-0.04607331
11.26	2.22146815	-0.189141463	-8.689700894	-0.036820349	-0.025005693	-0.046338747
11.28	2.221609653	-0.189820427	-8.686255903	-0.03700909	-0.025141206	-0.04660346
11.3	2.221748821	-0.19048899	-8.682857078	-0.037196517	-0.025275069	-0.046867425
11.32	2.221885565	-0.191147036	-8.679504444	-0.037382605	-0.02540727	-0.04713062
11.34	2.222019796	-0.191794446	-8.676198026	-0.037567331	-0.025537794	-0.047393024
11.36	2.222151427	-0.192431103	-8.672937846	-0.037750669	-0.02566663	-0.047654615
11.38	2.22228037	-0.19305689	-8.669723925	-0.037932597	-0.025793763	-0.047915369
11.4	2.222406535	-0.19367169	-8.66655628	-0.038113088	-0.025919181	-0.048175266
11.42	2.222529835	-0.194275387	-8.663434928	-0.038292119	-0.026042871	-0.048434283
11.44	2.222650182	-0.194867865	-8.660359883	-0.038469665	-0.02616482	-0.048692397
11.46	2.222767489	-0.195449007	-8.657331159	-0.038645703	-0.026285014	-0.048949588
11.48	2.222881666	-0.196018699	-8.654348766	-0.038820207	-0.02640344	-0.049205832
11.5	2.222992627	-0.196576825	-8.651412713	-0.038993154	-0.026520087	-0.049461109
11.52	2.223100286	-0.197123271	-8.648523009	-0.039164519	-0.026634939	-0.049715394
11.54	2.223204553	-0.197657922	-8.645679659	-0.039334278	-0.026747986	-0.049968668
11.56	2.223305344	-0.198180665	-8.642882667	-0.039502406	-0.026859214	-0.050220907
11.58	2.223402572	-0.198691384	-8.640132036	-0.03966888	-0.026968609	-0.05047209
11.6	2.223496151	-0.199189969	-8.637427767	-0.039833676	-0.02707616	-0.050722196
11.62	2.223585994	-0.199676305	-8.634769861	-0.039996768	-0.027181854	-0.050971201
11.64	2.223672018	-0.200150281	-8.632158314	-0.040158134	-0.027285677	-0.051219084
11.66	2.223754138	-0.200611785	-8.629593125	-0.040317749	-0.027387617	-0.051465824
11.68	2.223832269	-0.201060705	-8.627074288	-0.040475589	-0.027487661	-0.051711398
11.7	2.223906327	-0.201496931	-8.624601798	-0.040631631	-0.027585797	-0.051955786
11.72	2.223976231	-0.201920352	-8.622175647	-0.04078585	-0.027682013	-0.052198965
11.74	2.224041896	-0.202330859	-8.619795828	-0.040938223	-0.027776295	-0.052440914
11.76	2.224103242	-0.202728341	-8.617462331	-0.041088725	-0.027868631	-0.052681612
11.78	2.224160187	-0.20311269	-8.615175145	-0.041237335	-0.027959009	-0.052921037
11.8	2.22421265	-0.203483798	-8.612934259	-0.041384027	-0.028047416	-0.053159167
11.82	2.224260553	-0.203841558	-8.610739659	-0.041528778	-0.028133841	-0.053395983
11.84	2.224303815	-0.204185861	-8.608591332	-0.041671566	-0.02821827	-0.053631461
11.86	2.224342359	-0.204516601	-8.606489264	-0.041812366	-0.028300692	-0.053865583
11.88	2.224376108	-0.204833673	-8.604433438	-0.041951156	-0.028381095	-0.054098325
11.9	2.224404985	-0.20513697	-8.602423839	-0.042087912	-0.028459466	-0.054329669
11.92	2.224428913	-0.205426389	-8.600460448	-0.042222611	-0.028535794	-0.054559592
11.94	2.22444782	-0.205701824	-8.598543248	-0.042355231	-0.028610066	-0.054788075
11.96	2.224461631	-0.205963172	-8.59667222	-0.042485748	-0.028682271	-0.055015097
11.98	2.224470273	-0.206210331	-8.594847344	-0.04261414	-0.028752397	-0.055240636
12	2.224473675	-0.206443198	-8.593068601	-0.042740385	-0.028820433	-0.055464674
12.02	2.224471766	-0.206661672	-8.59133597	-0.042864459	-0.028886366	-0.055687191
12.04	2.224464478	-0.206865651	-8.58964943	-0.042986341	-0.028950185	-0.055908165
12.06	2.224451741	-0.207055036	-8.588008958	-0.043106009	-0.029011879	-0.056127577
12.08	2.224433488	-0.207229727	-8.586414533	-0.043223439	-0.029071436	-0.056345407
12.1	2.224409655	-0.207389625	-8.584866133	-0.043338611	-0.029128845	-0.056561636
12.12	2.224380175	-0.207534633	-8.583363734	-0.043451503	-0.029184096	-0.056776245
12.14	2.224344987	-0.207664653	-8.581907314	-0.043562092	-0.029237176	-0.056989214
12.16	2.224304028	-0.207779589	-8.580496849	-0.043670358	-0.029288075	-0.057200523
12.18	2.224257237	-0.207879344	-8.579132315	-0.043776279	-0.029336782	-0.057410155
12.2	2.224204555	-0.207963825	-8.577813689	-0.043879833	-0.029383286	-0.05761809
12.22	2.224145924	-0.208032937	-8.576540948	-0.043981001	-0.029427577	-0.057824309
12.24	2.224081289	-0.208086587	-8.575314067	-0.04407976	-0.029469644	-0.058028794
12.26	2.224010594	-0.208124682	-8.574133023	-0.04417609	-0.029509476	-0.058231528
12.28	2.223933786	-0.20814713	-8.572997791	-0.044269971	-0.029547064	-0.058432491
12.3	2.223850814	-0.208153842	-8.571908349	-0.044361382	-0.029582396	-0.058631666
12.32	2.223761627	-0.208144727	-8.570864672	-0.044450304	-0.029615464	-0.058829035
12.34	2.223666177	-0.208119697	-8.569866738	-0.044536715	-0.029646256	-0.059024581
12.36	2.223564417	-0.208078662	-8.568914523	-0.044620597	-0.029674764	-0.059218286
12.38	2.223456302	-0.208021537	-8.568008005	-0.04470193	-0.029700977	-0.059410134
12.4	2.223341789	-0.207948234	-8.567147161	-0.044780694	-0.029724886	-0.059600107
12.42	2.223220836	-0.207858668	-8.566331969	-0.04485687	-0.029746482	-0.059788189
12.44	2.223093403	-0.207752756	-8.565562407	-0.04493044	-0.029765754	-0.059974364
12.46	2.222959453	-0.207630414	-8.564838455	-0.045001384	-0.029782695	-0.060158615
12.48	2.222818949	-0.207491558	-8.564160091	-0.045069683	-0.029797295	-0.060340926
12.5	2.222671858	-0.207336109	-8.563527295	-0.04513532	-0.029809545	-0.060521282
12.52	2.222518146	-0.207163985	-8.562940049	-0.045198277	-0.029819436	-0.060699666
12.54	2.222357785	-0.206975108	-8.562398333	-0.045258534	-0.02982696	-0.060876065
12.56	2.222190744	-0.206769397	-8.561902129	-0.045316076	-0.029832109	-0.061050463
12.58	2.222016999	-0.206546778	-8.561451419	-0.045370884	-0.029834874	-0.061222844
12.6	2.221836525	-0.206307172	-8.561046188	-0.045422941	-0.029835247	-0.061393196
12.62	2.2216493	-0.206050506	-8.560686419	-0.04547223	-0.029833221	-0.061561503
12.64	2.221455303	-0.205776704	-8.560372097	-0.045518735	-0.029828788	-0.061727751
12.66	2.221254517	-0.205485693	-8.560103209	-0.045562439	-0.029821939	-0.061891927
12.68	2.221046925	-0.205177403	-8.55987974	-0.045603326	-0.029812669	-0.062054018
12.7	2.220832516	-0.204851762	-8.55970168	-0.04564138	-0.029800969	-0.062214009
12.72	2.220611276	-0.2045087	-8.559569017	-0.045676585	-0.029786832	-0.06237189
12.74	2.220383196	-0.204148149	-8.559481741	-0.045708926	-0.029770252	-0.062527646
12.76	2.220148271	-0.203770042	-8.559439843	-0.045738388	-0.029751223	-0.062681265
12.78	2.219906495	-0.203374312	-8.559443316	-0.045764956	-0.029729737	-0.062832737
12.8	2.219657865	-0.202960894	-8.559492152	-0.045788615	-0.029705789	-0.062982048
12.82	2.219402383	-0.202529725	-8.559586346	-0.045809351	-0.029679373	-0.063129188
12.84	2.219140049	-0.202080742	-8.559725895	-0.04582715	-0.029650482	-0.063274145
12.86	2.21887087	-0.201613884	-8.559910794	-0.045841999	-0.029619112	-0.063416909
12.88	2.218594851	-0.201129091	-8.560141044	-0.045853884	-0.029585256	-0.063557469
12.9	2.218312002	-0.200626303	-8.560416642	-0.045862791	-0.02954891	-0.063695816
12.92	2.218022336	-0.200105464	-8.560737592	-0.045868709	-0.029510068	-0.063831939
12.94	2.217725867	-0.199566516	-8.561103894	-0.045871624	-0.029468726	-0.063965828
12.96	2.21742261	-0.199009406	-8.561515553	-0.045871525	-0.02942488	-0.064097476
12.98	2.217112587	-0.198434079	-8.561972575	-0.045868399	-0.029378525	-0.064226872
13	2.216795817	-0.197840482	-8.562474966	-0.045862235	-0.029329657	-0.064354009
13.02	2.216472327	-0.197228566	-8.563022734	-0.045853022	-0.029278272	-0.064478878
13.04	2.216142142	-0.19659828	-8.56361589	-0.045840749	-0.029224367	-0.064601471
13.06	2.215805291	-0.195949576	-8.564254444	-0.045825404	-0.029167939	-0.064721781
13.08	2.215461807	-0.195282406	-8.564938411	-0.045806979	-0.029108983	-0.064839802
13.1	2.215111724	-0.194596727	-8.565667804	-0.045785463	-0.029047498	-0.064955525
13.12	2.214755078	-0.193892492	-8.56644264	-0.045760846	-0.028983481	-0.065068945
13.14	2.21439191	-0.19316966	-8.567262937	-0.04573312	-0.028916929	-0.065180055
13.16	2.214022262	-0.192428189	-8.568128714	-0.045702274	-0.028847841	-0.06528885
13.18	2.213646177	-0.191668039	-8.569039992	-0.045668302	-0.028776214	-0.065395325
13.2	2.213263704	-0.190889173	-8.569996795	-0.045631194	-0.028702048	-0.065499474
13.22	2.212874892	-0.190091552	-8.570999146	-0.045590943	-0.02862534	-0.065601294
13.24	2.212479794	-0.189275142	-8.572047072	-0.045547541	-0.028546089	-0.065700779
13.26	2.212078464	-0.188439908	-8.573140602	-0.045500981	-0.028464296	-0.065797925
13.28	2.211670961	-0.187585818	-8.574279764	-0.045451256	-0.028379959	-0.06589273
13.3	2.211257345	-0.186712841	-8.57546459	-0.04539836	-0.028293078	-0.065985191
13.32	2.210837677	-0.185820948	-8.576695114	-0.045342287	-0.028203653	-0.066075304
13.34	2.210412025	-0.184910111	-8.57797137	-0.045283032	-0.028111685	-0.066163066
13.36	2.209980456	-0.183980303	-8.579293395	-0.045220588	-0.028017174	-0.066248477
13.38	2.20954304	-0.1830315	-8.580661227	-0.045154951	-0.027920121	-0.066331535
13.4	2.209099851	-0.182063678	-8.582074907	-0.045086117	-0.027820528	-0.066412238
13.42	2.208650965	-0.181076816	-8.583534477	-0.045014082	-0.027718395	-0.066490585
13.44	2.20819646	-0.180070894	-8.58503998	-0.04493884	-0.027613725	-0.066566577
13.46	2.207736417	-0.179045894	-8.586591462	-0.04486039	-0.027506519	-0.066640212
13.48	2.20727092	-0.178001798	-8.588188969	-0.044778728	-0.02739678	-0.066711492
13.5	2.206800054	-0.176938593	-8.589832551	-0.044693852	-0.027284511	-0.066780418
13.52	2.206323909	-0.175856264	-8.591522259	-0.044605759	-0.027169715	-0.066846989
13.54	2.205842575	-0.1747548	-8.593258144	-0.044514448	-0.027052394	-0.066911209
13.56	2.205356146	-0.17363419	-8.595040262	-0.044419917	-0.026932553	-0.066973078
13.58	2.204864719	-0.172494427	-8.596868666	-0.044322165	-0.026810196	-0.067032599
13.6	2.204368392	-0.171335504	-8.598743416	-0.044221192	-0.026685325	-0.067089776
13.62	2.203867266	-0.170157416	-8.60066457	-0.044116997	-0.026557947	-0.06714461
13.64	2.203361445	-0.16896016	-8.602632188	-0.04400958	-0.026428066	-0.067197106
13.66	2.202851035	-0.167743735	-8.604646333	-0.043898943	-0.026295686	-0.067247268
13.68	2.202336144	-0.16650814	-8.60670707	-0.043785086	-0.026160814	-0.0672951
13.7	2.201816883	-0.165253378	-8.608814463	-0.04366801	-0.026023454	-0.067340607
13.72	2.201293365	-0.163979453	-8.610968579	-0.043547718	-0.025883614	-0.067383793
13.74	2.200765706	-0.162686371	-8.613169487	-0.043424211	-0.0257413	-0.067424665
13.76	2.200234023	-0.16137414	-8.615417258	-0.043297493	-0.025596518	-0.067463229
13.78	2.199698438	-0.160042768	-8.617711962	-0.043167566	-0.025449275	-0.06749949
13.8	2.199159071	-0.158692268	-8.620053673	-0.043034435	-0.025299578	-0.067533456
13.82	2.198616049	-0.157322651	-8.622442465	-0.042898102	-0.025147436	-0.067565134
13.84	2.198069497	-0.155933934	-8.624878413	-0.042758572	-0.024992856	-0.067594531
13.86	2.197519545	-0.154526133	-8.627361595	-0.04261585	-0.024835846	-0.067621656
13.88	2.196966323	-0.153099267	-8.62989209	-0.042469942	-0.024676416	-0.067646516
13.9	2.196409967	-0.151653356	-8.632469975	-0.042320852	-0.024514573	-0.067669122
13.92	2.195850609	-0.150188423	-8.635095333	-0.042168587	-0.024350328	-0.067689481
13.94	2.19528839	-0.148704494	-8.637768246	-0.042013153	-0.02418369	-0.067707604
13.96	2.194723446	-0.147201593	-8.640488796	-0.041854557	-0.024014669	-0.0677235
13.98	2.194155921	-0.14567975	-8.643257067	-0.041692807	-0.023843275	-0.06773718
14	2.193585957	-0.144138995	-8.646073144	-0.04152791	-0.023669519	-0.067748655
14.02	2.1930137	-0.14257936	-8.648937115	-0.041359874	-0.023493411	-0.067757936
14.04	2.192439297	-0.14100088	-8.651849064	-0.041188708	-0.023314963	-0.067765035
14.06	2.191862897	-0.139403591	-8.654809082	-0.041014422	-0.023134186	-0.067769963
14.08	2.19128465	-0.137787532	-8.657817255	-0.040837023	-0.022951093	-0.067772733
14.1	2.190704709	-0.136152743	-8.660873674	-0.040656523	-0.022765695	-0.067773358
14.12	2.190123229	-0.134499267	-8.663978428	-0.040472932	-0.022578004	-0.067771851
14.14	2.189540365	-0.132827148	-8.667131609	-0.040286259	-0.022388035	-0.067768225
14.16	2.188956274	-0.131136432	-8.670333307	-0.040096518	-0.022195799	-0.067762495
14.18	2.188371116	-0.129427169	-8.673583614	-0.039903718	-0.022001311	-0.067754674
14.2	2.187785052	-0.127699409	-8.676882623	-0.039707873	-0.021804584	-0.067744778
14.22	2.187198242	-0.125953205	-8.680230426	-0.039508994	-0.021605632	-0.067732821
14.24	2.18661085	-0.124188612	-8.683627116	-0.039307094	-0.02140447	-0.067718819
14.26	2.186023042	-0.122405688	-8.687072785	-0.039102188	-0.021201112	-0.067702788
14.28	2.185434983	-0.120604491	-8.690567527	-0.038894287	-0.020995573	-0.067684744
14.3	2.184846841	-0.118785083	-8.694111436	-0.038683408	-0.020787869	-0.067664703
14.32	2.184258783	-0.116947527	-8.697704604	-0.038469563	-0.020578016	-0.067642683
14.34	2.183670981	-0.11509189	-8.701347125	-0.038252769	-0.020366029	-0.0676187
14.36	2.183083604	-0.113218239	-8.705039091	-0.03803304	-0.020151925	-0.067592773
14.38	2.182496825	-0.111326644	-8.708780596	-0.037810393	-0.019935721	-0.067564919
14.4	2.181910816	-0.109417177	-8.712571732	-0.037584843	-0.019717432	-0.067535156
14.42	2.181325751	-0.107489914	-8.716412591	-0.037356408	-0.019497077	-0.067503504
14.44	2.180741804	-0.10554493	-8.720303264	-0.037125104	-0.019274672	-0.067469981
14.46	2.180159152	-0.103582305	-8.724243843	-0.036890949	-0.019050237	-0.067434606
14.48	2.17957797	-0.10160212	-8.728234417	-0.036653962	-0.018823788	-0.0673974
14.5	2.178998436	-0.099604458	-8.732275077	-0.036414159	-0.018595344	-0.067358382
14.52	2.178420727	-0.097589405	-8.736365911	-0.036171561	-0.018364924	-0.067317572
14.54	2.17784502	-0.09555705	-8.740507006	-0.035926186	-0.018132546	-0.067274992
14.56	2.177271496	-0.093507481	-8.744698451	-0.035678054	-0.01789823	-0.067230662
14.58	2.176700333	-0.091440793	-8.748940329	-0.035427184	-0.017661996	-0.067184603
14.6	2.17613171	-0.089357079	-8.753232726	-0.035173598	-0.017423863	-0.067136837
14.62	2.175565808	-0.087256436	-8.757575724	-0.034917316	-0.017183851	-0.067087386
14.64	2.175002807	-0.085138965	-8.761969406	-0.034658359	-0.016941981	-0.067036272
14.66	2.174442887	-0.083004767	-8.766413852	-0.034396748	-0.016698273	-0.066983517
14.68	2.173886229	-0.080853945	-8.770909139	-0.034132507	-0.016452747	-0.066929145
14.7	2.173333013	-0.078686607	-8.775455345	-0.033865657	-0.016205426	-0.066873177
14.72	2.172783421	-0.07650286	-8.780052546	-0.03359622	-0.01595633	-0.066815638
14.74	2.172237632	-0.074302817	-8.784700813	-0.033324221	-0.015705481	-0.066756551
14.76	2.171695828	-0.07208659	-8.789400218	-0.033049682	-0.015452901	-0.066695939
14.78	2.171158188	-0.069854295	-8.794150831	-0.032772628	-0.015198612	-0.066633828
14.8	2.170624894	-0.06760605	-8.798952717	-0.032493083	-0.014942636	-0.06657024
14.82	2.170096124	-0.065341975	-8.803805942	-0.032211072	-0.014684996	-0.066505201
14.84	2.169572059	-0.063062194	-8.808710567	-0.031926619	-0.014425714	-0.066438735
14.86	2.169052877	-0.060766832	-8.813666652	-0.03163975	-0.014164814	-0.066370868
14.88	2.168538757	-0.058456016	-8.818674253	-0.031350491	-0.013902319	-0.066301624
14.9	2.168029878	-0.056129875	-8.823733424	-0.031058869	-0.013638253	-0.066231029
14.92	2.167526416	-0.053788543	-8.828844218	-0.030764909	-0.013372638	-0.066159109
14.94	2.167028548	-0.051432154	-8.834006681	-0.030468638	-0.0131055	-0.066085889
14.96	2.166536451	-0.049060844	-8.839220859	-0.030170084	-0.012836861	-0.066011396
14.98	2.166050298	-0.046674754	-8.844486793	-0.029869275	-0.012566747	-0.065935655
15	2.165570266	-0.044274025	-8.849804523	-0.029566237	-0.012295181	-0.065858693
15.02	2.165096526	-0.041858802	-8.855174084	-0.029261001	-0.012022189	-0.065780537
15.04	2.164629252	-0.03942923	-8.860595506	-0.028953593	-0.011747796	-0.065701214
15.06	2.164168614	-0.036985459	-8.866068818	-0.028644044	-0.011472025	-0.06562075
15.08	2.163714783	-0.03452764	-8.871594044	-0.028332382	-0.011194904	-0.065539172
15.1	2.163267927	-0.032055926	-8.877171205	-0.028018637	-0.010916456	-0.065456507
15.12	2.162828215	-0.029570475	-8.882800316	-0.02770284	-0.010636708	-0.065372783
15.14	2.162395811	-0.027071443	-8.88848139	-0.027385019	-0.010355685	-0.065288028
15.16	2.161970881	-0.024558992	-8.894214436	-0.027065207	-0.010073412	-0.065202268
15.18	2.161553589	-0.022033286	-8.899999455	-0.026743433	-0.009789917	-0.065115532
15.2	2.161144096	-0.019494489	-8.905836449	-0.026419729	-0.009505226	-0.065027847
15.22	2.160742562	-0.016942769	-8.911725412	-0.026094126	-0.009219363	-0.064939242
15.24	2.160349147	-0.014378297	-8.917666333	-0.025766657	-0.008932357	-0.064849743
15.26	2.159964006	-0.011801244	-8.923659198	-0.025437352	-0.008644233	-0.064759379
15.28	2.159587294	-0.009211787	-8.929703988	-0.025106246	-0.008355018	-0.064668178
15.3	2.159219166	-0.006610102	-8.935800677	-0.024773369	-0.008064738	-0.064576169
15.32	2.158859772	-0.003996368	-8.941949237	-0.024438756	-0.007773422	-0.06448338
15.34	2.158509261	-0.001370767	-8.948149633	-0.02410244	-0.007481095	-0.064389838
15.36	2.158167781	0.001266516	-8.954401824	-0.023764453	-0.007187785	-0.064295572
15.38	2.157835477	0.003915295	-8.960705764	-0.023424829	-0.006893519	-0.06420061
15.4	2.157512492	0.006575382	-8.967061404	-0.023083603	-0.006598324	-0.064104981
15.42	2.157198967	0.009246586	-8.973468686	-0.022740809	-0.006302227	-0.064008714
15.44	2.15689504	0.011928714	-8.979927547	-0.022396481	-0.006005256	-0.063911835
15.46	2.156600848	0.01462157	-8.98643792	-0.022050653	-0.005707439	-0.063814374
15.48	2.156316523	0.017324957	-8.99299973	-0.021703362	-0.005408802	-0.06371636
15.5	2.156042199	0.020038675	-8.999612897	-0.021354641	-0.005109374	-0.063617819
15.52	2.155778003	0.022762522	-9.006277335	-0.021004527	-0.004809182	-0.063518781
15.54	2.155524062	0.025496294	-9.012992952	-0.020653054	-0.004508253	-0.063419274
15.56	2.1552805	0.028239785	-9.019759647	-0.020300259	-0.004206616	-0.063319325
15.58	2.155047438	0.030992786	-9.026577316	-0.019946178	-0.003904298	-0.063218964
15.6	2.154824994	0.033755088	-9.033445848	-0.019590846	-0.003601327	-0.063118217
15.62	2.154613284	0.036526476	-9.040365123	-0.019234301	-0.003297731	-0.063017114
15.64	2.154412421	0.039306737	-9.047335016	-0.018876578	-0.002993536	-0.062915681
15.66	2.154222515	0.042095654	-9.054355396	-0.018517715	-0.002688772	-0.062813946
15.68	2.154043672	0.044893009	-9.061426124	-0.018157749	-0.002383466	-0.062711938
15.7	2.153875998	0.04769858	-9.068547054	-0.017796715	-0.002077646	-0.062609683
15.72	2.153719593	0.050512145	-9.075718032	-0.017434653	-0.001771339	-0.062507209
15.74	2.153574555	0.053333479	-9.082938899	-0.017071598	-0.001464573	-0.062404543
15.76	2.15344098	0.056162356	-9.090209489	-0.016707589	-0.001157376	-0.062301713
15.78	2.153318959	0.058998547	-9.097529625	-0.016342663	-0.000849776	-0.062198745
15.8	2.153208582	0.061841822	-9.104899127	-0.015976858	-0.0005418	-0.062095666
15.82	2.153109933	0.064691949	-9.112317805	-0.015610211	-0.000233475	-0.061992503
15.84	2.153023096	0.067548694	-9.119785462	-0.015242762	7.52E-05	-0.061889281
15.86	2.152948149	0.07041182	-9.127301894	-0.014874548	0.000384108	-0.061786028
15.88	2.152885168	0.073281092	-9.134866889	-0.014505606	0.000693313	-0.06168277
15.9	2.152834225	0.076156268	-9.142480227	-0.014135977	0.001002755	-0.061579532
15.92	2.15279539	0.079037109	-9.15014168	-0.013765697	0.001312409	-0.061476339
15.94	2.152768729	0.081923373	-9.157851013	-0.013394805	0.001622247	-0.061373218
15.96	2.152754302	0.084814814	-9.165607982	-0.01302334	0.001932242	-0.061270193
15.98	2.15275217	0.087711187	-9.173412338	-0.012651341	0.002242367	-0.06116729
16	2.152762388	0.090612245	-9.181263819	-0.012278846	0.002552596	-0.061064533
16.02	2.152785006	0.093517739	-9.189162159	-0.011905894	0.0028629	-0.060961946
16.04	2.152820074	0.096427419	-9.197107082	-0.011532523	0.003173254	-0.060859554
16.06	2.152867636	0.099341033	-9.205098305	-0.011158773	0.003483631	-0.06075738
16.08	2.152927733	0.102258329	-9.213135537	-0.010784682	0.003794005	-0.060655448
16.1	2.153000402	0.105179052	-9.221218476	-0.010410288	0.00410435	-0.060553782
16.12	2.153085678	0.108102946	-9.229346815	-0.010035632	0.004414638	-0.060452404
16.14	2.15318359	0.111029755	-9.237520238	-0.009660751	0.004724845	-0.060351337
16.16	2.153294164	0.11395922	-9.245738418	-0.009285685	0.005034944	-0.060250604
16.18	2.153417424	0.116891082	-9.254001024	-0.008910472	0.005344909	-0.060150226
16.2	2.153553389	0.119825081	-9.262307714	-0.008535151	0.005654716	-0.060050226
16.22	2.153702074	0.122760956	-9.270658138	-0.008159761	0.005964338	-0.059950624
16.24	2.153863491	0.125698443	-9.279051936	-0.007784341	0.006273751	-0.059851441
16.26	2.154037647	0.12863728	-9.287488744	-0.007408928	0.006582929	-0.059752699
16.28	2.154224547	0.131577202	-9.295968184	-0.007033563	0.006891847	-0.059654418
16.3	2.154424191	0.134517945	-9.304489875	-0.006658282	0.007200482	-0.059556618
16.32	2.154636576	0.137459241	-9.313053422	-0.006283126	0.007508807	-0.059459317
16.34	2.154861696	0.140400824	-9.321658427	-0.005908132	0.0078168	-0.059362536
16.36	2.155099539	0.143342427	-9.33030448	-0.005533338	0.008124435	-0.059266294
16.38	2.155350091	0.146283781	-9.338991164	-0.005158784	0.008431689	-0.059170608
16.4	2.155613334	0.149224618	-9.347718052	-0.004784506	0.008738538	-0.059075497
16.42	2.155889245	0.152164668	-9.356484711	-0.004410543	0.00904496	-0.058980979
16.44	2.1561778	0.155103661	-9.365290698	-0.004036933	0.009350929	-0.05888707
16.46	2.156478969	0.158041327	-9.374135562	-0.003663713	0.009656424	-0.058793787
16.48	2.156792718	0.160977396	-9.383018844	-0.003290922	0.009961422	-0.058701148
16.5	2.157119012	0.163911596	-9.391940076	-0.002918596	0.0102659	-0.058609167
16.52	2.157457809	0.166843657	-9.400898782	-0.002546773	0.010569835	-0.05851786
16.54	2.157809066	0.169773305	-9.409894478	-0.002175491	0.010873206	-0.058427243
16.56	2.158172734	0.172700271	-9.418926671	-0.001804785	0.01117599	-0.05833733
16.58	2.158548763	0.175624282	-9.427994862	-0.001434694	0.011478167	-0.058248136
16.6	2.158937098	0.178545066	-9.437098541	-0.001065253	0.011779714	-0.058159673
16.62	2.15933768	0.181462352	-9.446237192	-0.000696499	0.012080611	-0.058071956
16.64	2.159750447	0.184375867	-9.455410289	-0.000328469	0.012380836	-0.057984996
16.66	2.160175333	0.187285341	-9.464617301	3.88E-05	0.012680369	-0.057898808
16.68	2.16061227	0.190190502	-9.473857686	0.000405278	0.01297919	-0.057813401
16.7	2.161061184	0.193091079	-9.483130896	0.000770924	0.013277279	-0.057728789
16.72	2.161521999	0.195986801	-9.492436375	0.001135703	0.013574615	-0.057644981
16.74	2.161994637	0.198877398	-9.501773559	0.001499581	0.01387118	-0.057561989
16.76	2.162479014	0.2017626	-9.511141876	0.001862523	0.014166953	-0.057479822
16.78	2.162975043	0.204642138	-9.520540747	0.002224494	0.014461916	-0.05739849
16.8	2.163482636	0.207515743	-9.529969585	0.00258546	0.014756051	-0.057318002
16.82	2.1640017	0.210383147	-9.539427797	0.002945387	0.015049338	-0.057238367
16.84	2.164532138	0.213244082	-9.548914781	0.00330424	0.01534176	-0.057159592
16.86	2.165073852	0.216098283	-9.558429928	0.003661988	0.015633299	-0.057081685
16.88	2.165626739	0.218945483	-9.567972624	0.004018595	0.015923937	-0.057004653
16.9	2.166190693	0.221785417	-9.577542244	0.00437403	0.016213657	-0.056928503
16.92	2.166765606	0.224617823	-9.58713816	0.00472826	0.016502442	-0.056853241
16.94	2.167351366	0.227442436	-9.596759736	0.005081252	0.016790276	-0.056778873
16.96	2.167947859	0.230258996	-9.606406327	0.005432974	0.017077141	-0.056705403
16.98	2.168554967	0.233067242	-9.616077285	0.005783395	0.017363021	-0.056632837
17	2.16917257	0.235866914	-9.625771952	0.006132484	0.017647902	-0.056561178
17.02	2.169800544	0.238657755	-9.635489667	0.006480209	0.017931767	-0.05649043
17.04	2.170438765	0.241439509	-9.645229761	0.00682654	0.018214601	-0.056420597
17.06	2.171087103	0.24421192	-9.654991558	0.007171446	0.01849639	-0.05635168
17.08	2.171745426	0.246974734	-9.664774378	0.007514898	0.018777118	-0.056283682
17.1	2.172413602	0.2497277	-9.674577533	0.007856866	0.019056771	-0.056216606
17.12	2.173091493	0.252470568	-9.684400331	0.00819732	0.019335336	-0.056150451
17.14	2.173778961	0.255203088	-9.694242074	0.008536233	0.019612798	-0.056085218
17.16	2.174475865	0.257925013	-9.704102057	0.008873576	0.019889145	-0.056020909
17.18	2.17518206	0.2606361	-9.713979572	0.00920932	0.020164362	-0.055957522
17.2	2.1758974	0.263336104	-9.723873905	0.009543439	0.020438438	-0.055895057
17.22	2.176621738	0.266024784	-9.733784335	0.009875904	0.020711359	-0.055833512
17.24	2.177354924	0.268701902	-9.743710138	0.010206689	0.020983114	-0.055772887
17.26	2.178096804	0.271367219	-9.753650586	0.010535768	0.02125369	-0.055713178
17.28	2.178847224	0.274020502	-9.763604944	0.010863115	0.021523077	-0.055654383
17.3	2.179606028	0.276661517	-9.773572475	0.011188704	0.021791262	-0.055596499
17.32	2.180373057	0.279290033	-9.783552434	0.01151251	0.022058234	-0.055539522
17.34	2.181148151	0.281905824	-9.793544077	0.011834509	0.022323984	-0.055483449
17.36	2.181931149	0.284508662	-9.803546651	0.012154675	0.022588499	-0.055428275
17.38	2.182721886	0.287098325	-9.813559402	0.012472986	0.022851771	-0.055373995
17.4	2.183520197	0.289674592	-9.823581572	0.012789419	0.02311379	-0.055320603
17.42	2.184325915	0.292237244	-9.833612398	0.013103949	0.023374545	-0.055268094
17.44	2.185138873	0.294786066	-9.843651116	0.013416555	0.023634027	-0.055216462
17.46	2.185958899	0.297320845	-9.853696956	0.013727215	0.023892228	-0.0551657
17.48	2.186785824	0.299841371	-9.863749147	0.014035908	0.024149139	-0.0551158
17.5	2.187619475	0.302347436	-9.873806914	0.014342612	0.024404751	-0.055066756
17.52	2.188459678	0.304838836	-9.88386948	0.014647306	0.024659056	-0.055018559
17.54	2.189306259	0.307315368	-9.893936065	0.014949972	0.024912047	-0.054971201
17.56	2.190159042	0.309776834	-9.904005887	0.015250588	0.025163715	-0.054924674
17.58	2.19101785	0.312223039	-9.91407816	0.015549137	0.025414053	-0.054878967
17.6	2.191882506	0.314653789	-9.924152099	0.015845599	0.025663055	-0.054834073
17.62	2.192752832	0.317068895	-9.934226915	0.016139957	0.025910712	-0.054789981
17.64	2.193628648	0.31946817	-9.944301817	0.016432192	0.02615702	-0.05474668
17.66	2.194509774	0.321851431	-9.954376014	0.016722288	0.026401971	-0.05470416
17.68	2.19539603	0.324218498	-9.964448713	0.017010228	0.02664556	-0.05466241
17.7	2.196287235	0.326569194	-9.974519118	0.017295995	0.02688778	-0.054621419
17.72	2.197183209	0.328903345	-9.984586435	0.017579575	0.027128626	-0.054581176
17.74	2.198083768	0.331220781	-9.994649867	0.017860951	0.027368093	-0.054541667
17.76	2.19898873	0.333521336	-10.00470862	0.01814011	0.027606175	-0.054502882
17.78	2.199897915	0.335804845	-10.01476189	0.018417038	0.027842869	-0.054464806
17.8	2.200811138	0.338071149	-10.02480888	0.018691719	0.028078168	-0.054427429
17.82	2.201728218	0.340320092	-10.0348488	0.018964143	0.02831207	-0.054390735
17.84	2.202648971	0.342551521	-10.04488084	0.019234295	0.028544569	-0.054354712
17.86	2.203573216	0.344765286	-10.05490421	0.019502164	0.028775662	-0.054319346
17.88	2.20450077	0.346961242	-10.06491811	0.019767738	0.029005345	-0.054284623
17.9	2.20543145	0.349139247	-10.07492174	0.020031006	0.029233615	-0.054250528
17.92	2.206365074	0.351299161	-10.08491431	0.020291958	0.029460467	-0.054217047
17.94	2.207301462	0.353440852	-10.09489502	0.020550583	0.029685901	-0.054184166
17.96	2.208240431	0.355564187	-10.10486307	0.020806872	0.029909911	-0.054151868
17.98	2.209181801	0.357669039	-10.11481767	0.021060816	0.030132496	-0.05412014
18	2.210125391	0.359755286	-10.12475803	0.021312406	0.030353653	-0.054088965
18.02	2.211071022	0.361822806	-10.13468336	0.021561634	0.03057338	-0.054058327
18.04	2.212018515	0.363871485	-10.14459286	0.021808493	0.030791674	-0.054028212
18.06	2.212967691	0.365901211	-10.15448576	0.022052976	0.031008535	-0.053998602
18.08	2.213918373	0.367911874	-10.16436125	0.022295075	0.031223959	-0.053969482
18.1	2.214870384	0.369903372	-10.17421857	0.022534786	0.031437946	-0.053940835
18.12	2.215823549	0.371875602	-10.18405692	0.022772102	0.031650493	-0.053912644
18.14	2.216777692	0.37382847	-10.19387554	0.023007019	0.0318616	-0.053884894
18.16	2.21773264	0.375761882	-10.20367363	0.023239531	0.032071265	-0.053857566
18.18	2.21868822	0.377675749	-10.21345043	0.023469636	0.032279488	-0.053830645
18.2	2.21964426	0.379569987	-10.22320517	0.023697329	0.032486268	-0.053804113
18.22	2.22060059	0.381444515	-10.23293707	0.023922607	0.032691603	-0.053777953
18.24	2.221557042	0.383299256	-10.24264538	0.024145468	0.032895494	-0.053752147
18.26	2.222513446	0.385134136	-10.25232932	0.024365909	0.03309794	-0.053726679
18.28	2.223469636	0.386949087	-10.26198815	0.024583929	0.033298941	-0.05370153
18.3	2.224425449	0.388744043	-10.2716211	0.024799527	0.033498495	-0.053676684
18.32	2.225380718	0.390518944	-10.28122742	0.025012702	0.033696605	-0.053652122
18.34	2.226335284	0.392273732	-10.29080637	0.025223454	0.033893268	-0.053627828
18.36	2.227288984	0.394008353	-10.3003572	0.025431783	0.034088487	-0.053603784
18.38	2.22824166	0.395722758	-10.30987917	0.02563769	0.03428226	-0.053579971
18.4	2.229193155	0.397416902	-10.31937154	0.025841175	0.034474588	-0.053556373
18.42	2.230143313	0.399090743	-10.32883359	0.026042242	0.034665472	-0.053532972
18.44	2.231091979	0.400744243	-10.33826458	0.02624089	0.034854912	-0.053509749
18.46	2.232039002	0.402377369	-10.34766379	0.026437124	0.035042909	-0.053486688
18.48	2.23298423	0.40399009	-10.35703051	0.026630946	0.035229464	-0.053463771
18.5	2.233927516	0.40558238	-10.36636401	0.026822359	0.035414577	-0.053440981
18.52	2.234868713	0.407154217	-10.3756636	0.027011368	0.035598249	-0.053418299
18.54	2.235807674	0.408705582	-10.38492856	0.027197976	0.035780481	-0.053395708
18.56	2.236744259	0.410236461	-10.39415819	0.027382187	0.035961274	-0.053373191
18.58	2.237678325	0.411746843	-10.40335181	0.027564008	0.03614063	-0.053350731
18.6	2.238609733	0.413236721	-10.41250872	0.027743444	0.036318548	-0.053328311
18.62	2.239538346	0.414706091	-10.42162824	0.027920499	0.036495031	-0.053305912
18.64	2.24046403	0.416154953	-10.43070969	0.028095182	0.03667008	-0.053283519
18.66	2.241386651	0.417583312	-10.43975239	0.028267497	0.036843696	-0.053261115
18.68	2.242306079	0.418991174	-10.44875569	0.028437453	0.037015879	-0.053238682
18.7	2.243222184	0.420378552	-10.45771891	0.028605056	0.037186633	-0.053216203
18.72	2.24413484	0.42174546	-10.4666414	0.028770315	0.037355957	-0.053193663
18.74	2.245043923	0.423091916	-10.47552251	0.028933237	0.037523853	-0.053171046
18.76	2.245949309	0.424417943	-10.48436159	0.029093832	0.037690323	-0.053148333
18.78	2.24685088	0.425723565	-10.49315801	0.029252107	0.037855367	-0.053125511
18.8	2.247748516	0.427008811	-10.50191113	0.029408072	0.038018989	-0.053102562
18.82	2.248642103	0.428273714	-10.51062033	0.029561736	0.038181188	-0.053079472
18.84	2.249531526	0.429518309	-10.51928498	0.02971311	0.038341967	-0.053056224
18.86	2.250416674	0.430742635	-10.52790447	0.029862203	0.038501326	-0.053032804
18.88	2.251297437	0.431946734	-10.53647819	0.030009026	0.038659268	-0.053009196
18.9	2.25217371	0.433130652	-10.54500554	0.03015359	0.038815794	-0.052985385
18.92	2.253045387	0.434294438	-10.55348592	0.030295906	0.038970906	-0.052961356
18.94	2.253912366	0.435438143	-10.56191874	0.030435985	0.039124604	-0.052937096
18.96	2.254774547	0.436561822	-10.57030341	0.030573839	0.03927689	-0.05291259
18.98	2.255631831	0.437665533	-10.57863937	0.03070948	0.039427766	-0.052887823
19	2.256484124	0.438749338	-10.58692603	0.03084292	0.039577234	-0.052862783
19.02	2.257331331	0.4398133	-10.59516284	0.030974172	0.039725294	-0.052837455
19.04	2.258173361	0.440857487	-10.60334924	0.031103248	0.039871948	-0.052811827
19.06	2.259010126	0.441881968	-10.61148467	0.031230161	0.040017198	-0.052785886
19.08	2.259841539	0.442886815	-10.61956859	0.031354925	0.040161045	-0.052759618
19.1	2.260667515	0.443872106	-10.62760046	0.031477554	0.04030349	-0.052733011
19.12	2.261487971	0.444837916	-10.63557975	0.03159806	0.040444535	-0.052706054
19.14	2.262302829	0.445784329	-10.64350594	0.031716458	0.04058418	-0.052678733
19.16	2.26311201	0.446711426	-10.6513785	0.031832762	0.040722428	-0.052651039
19.18	2.263915439	0.447619294	-10.65919693	0.031946986	0.040859279	-0.052622959
19.2	2.264713041	0.448508022	-10.66696072	0.032059145	0.040994735	-0.052594482
19.22	2.265504746	0.4493777	-10.67466937	0.032169254	0.041128797	-0.052565598
19.24	2.266290485	0.450228422	-10.68232239	0.032277328	0.041261466	-0.052536296
19.26	2.267070191	0.451060285	-10.6899193	0.032383381	0.041392743	-0.052506567
19.28	2.267843798	0.451873385	-10.69745961	0.032487429	0.041522629	-0.0524764
19.3	2.268611244	0.452667823	-10.70494286	0.032589488	0.041651125	-0.052445786
19.32	2.26937247	0.453443701	-10.71236857	0.032689573	0.041778232	-0.052414716
19.34	2.270127415	0.454201125	-10.7197363	0.0327877	0.041903952	-0.052383181
19.36	2.270876023	0.454940201	-10.72704559	0.032883884	0.042028285	-0.052351173
19.38	2.271618241	0.455661037	-10.73429599	0.032978142	0.042151231	-0.052318684
19.4	2.272354015	0.456363744	-10.74148707	0.03307049	0.042272793	-0.052285705
19.42	2.273083296	0.457048435	-10.7486184	0.033160945	0.04239297	-0.052252229
19.44	2.273806035	0.457715223	-10.75568955	0.033249521	0.042511763	-0.05221825
19.46	2.274522185	0.458364225	-10.76270011	0.033336237	0.042629173	-0.052183759
19.48	2.275231702	0.458995558	-10.76964965	0.033421109	0.042745201	-0.052148752
19.5	2.275934543	0.459609342	-10.77653779	0.033504152	0.042859847	-0.052113221
19.52	2.276630668	0.460205697	-10.78336411	0.033585385	0.042973112	-0.052077161
19.54	2.277320038	0.460784747	-10.79012823	0.033664823	0.043084996	-0.052040567
19.56	2.278002615	0.461346615	-10.79682977	0.033742484	0.0431955	-0.052003433
19.58	2.278678365	0.461891426	-10.80346834	0.033818385	0.043304623	-0.051965755
19.6	2.279347254	0.462419306	-10.81004357	0.033892542	0.043412368	-0.051927528
19.62	2.280009251	0.462930385	-10.81655511	0.033964973	0.043518733	-0.051888748
19.64	2.280664325	0.46342479	-10.82300258	0.034035695	0.043623719	-0.051849412
19.66	2.281312449	0.463902653	-10.82938564	0.034104724	0.043727327	-0.051809516
19.68	2.281953595	0.464364104	-10.83570395	0.034172079	0.043829555	-0.051769056
19.7	2.28258774	0.464809276	-10.84195716	0.034237775	0.043930406	-0.051728032
19.72	2.283214859	0.465238303	-10.84814494	0.034301831	0.044029878	-0.051686439
19.74	2.283834932	0.465651318	-10.85426696	0.034364262	0.044127972	-0.051644277
19.76	2.284447938	0.466048456	-10.86032291	0.034425088	0.044224687	-0.051601543
19.78	2.285053859	0.466429855	-10.86631247	0.034484324	0.044320024	-0.051558236
19.8	2.285652678	0.46679565	-10.87223533	0.034541988	0.044413983	-0.051514355
19.82	2.286244378	0.467145978	-10.8780912	0.034598097	0.044506563	-0.0514699
19.84	2.286828947	0.467480978	-10.88387977	0.034652668	0.044597765	-0.05142487
19.86	2.287406372	0.467800789	-10.88960076	0.034705718	0.044687587	-0.051379265
19.88	2.28797664	0.468105549	-10.89525389	0.034757264	0.04477603	-0.051333087
19.9	2.288539744	0.468395398	-10.90083888	0.034807323	0.044863093	-0.051286334
19.92	2.289095673	0.468670475	-10.90635545	0.034855912	0.044948777	-0.051239009
19.94	2.289644421	0.468930922	-10.91180336	0.034903047	0.04503308	-0.051191113
19.96	2.290185983	0.469176878	-10.91718233	0.034948747	0.045116003	-0.051142647
19.98	2.290720352	0.469408485	-10.92249212	0.034993027	0.045197545	-0.051093614
20	2.291247527	0.469625883	-10.92773248	0.035035904	0.045277705	-0.051044015
20.02	2.291767504	0.469829214	-10.93290317	0.035077394	0.045356482	-0.050993854
20.04	2.292280283	0.470018618	-10.93800395	0.035117514	0.045433878	-0.050943134
20.06	2.292785863	0.470194238	-10.94303461	0.035156282	0.045509889	-0.050891857
20.08	2.293284247	0.470356213	-10.9479949	0.035193711	0.045584517	-0.050840027
20.1	2.293775436	0.470504686	-10.95288463	0.03522982	0.045657761	-0.050787649
20.12	2.294259433	0.470639797	-10.95770357	0.035264625	0.045729619	-0.050734725
20.14	2.294736244	0.470761686	-10.96245153	0.03529814	0.045800092	-0.050681262
20.16	2.295205872	0.470870496	-10.96712829	0.035330382	0.045869178	-0.050627262
20.18	2.295668326	0.470966365	-10.97173368	0.035361368	0.045936877	-0.050572733
20.2	2.296123612	0.471049434	-10.9762675	0.035391112	0.046003187	-0.050517678
20.22	2.296571738	0.471119843	-10.98072956	0.03541963	0.046068109	-0.050462103
20.24	2.297012714	0.47117773	-10.98511969	0.035446937	0.046131641	-0.050406015
20.26	2.29744655	0.471223235	-10.98943773	0.03547305	0.046193783	-0.050349419
20.28	2.297873255	0.471256496	-10.99368349	0.035497982	0.046254533	-0.050292322
20.3	2.298292843	0.47127765	-10.99785683	0.035521749	0.046313891	-0.050234731
20.32	2.298705326	0.471286835	-11.00195759	0.035544366	0.046371856	-0.050176652
20.34	2.299110716	0.471284187	-11.00598561	0.035565848	0.046428428	-0.050118092
20.36	2.299509028	0.471269843	-11.00994075	0.035586209	0.046483604	-0.05005906
20.38	2.299900276	0.471243937	-11.01382288	0.035605464	0.046537385	-0.049999562
20.4	2.300284477	0.471206604	-11.01763185	0.035623626	0.046589769	-0.049939607
20.42	2.300661645	0.471157977	-11.02136754	0.03564071	0.046640756	-0.049879203
20.44	2.301031798	0.47109819	-11.02502983	0.03565673	0.046690344	-0.049818357
20.46	2.301394954	0.471027374	-11.0286186	0.0356717	0.046738533	-0.049757079
20.48	2.301751129	0.470945662	-11.03213372	0.035685633	0.046785322	-0.049695378
20.5	2.302100343	0.470853182	-11.03557511	0.035698542	0.046830709	-0.049633262
20.52	2.302442615	0.470750064	-11.03894264	0.035710442	0.046874694	-0.049570741
20.54	2.302777965	0.470636437	-11.04223623	0.035721344	0.046917277	-0.049507824
20.56	2.303106412	0.470512428	-11.04545578	0.035731263	0.046958455	-0.049444521
20.58	2.303427977	0.470378163	-11.0486012	0.03574021	0.046998228	-0.049380841
20.6	2.303742683	0.470233767	-11.0516724	0.035748199	0.047036596	-0.049316795
20.62	2.304050549	0.470079366	-11.05466932	0.035755241	0.047073557	-0.049252393
20.64	2.304351599	0.469915081	-11.05759187	0.035761349	0.04710911	-0.049187645
20.66	2.304645855	0.469741034	-11.06043998	0.035766535	0.047143255	-0.049122561
20.68	2.304933339	0.469557347	-11.0632136	0.03577081	0.04717599	-0.049057153
20.7	2.305214076	0.469364139	-11.06591266	0.035774187	0.047207315	-0.048991431
20.72	2.305488089	0.469161527	-11.0685371	0.035776676	0.047237229	-0.048925406
20.74	2.305755402	0.46894963	-11.07108689	0.03577829	0.047265731	-0.04885909
20.76	2.306016039	0.468728564	-11.07356196	0.035779038	0.04729282	-0.048792493
20.78	2.306270025	0.468498442	-11.07596229	0.035778932	0.047318496	-0.048725628
20.8	2.306517386	0.468259377	-11.07828783	0.035777983	0.047342757	-0.048658505
20.82	2.306758146	0.468011483	-11.08053855	0.035776201	0.047365603	-0.048591137
20.84	2.306992332	0.467754869	-11.08271443	0.035773596	0.047387034	-0.048523535
20.86	2.307219968	0.467489645	-11.08481544	0.035770178	0.047407047	-0.048455711
20.88	2.307441083	0.467215919	-11.08684156	0.035765957	0.047425644	-0.048387677
20.9	2.307655701	0.466933796	-11.08879279	0.035760944	0.047442822	-0.048319446
20.92	2.307863849	0.466643384	-11.0906691	0.035755147	0.047458582	-0.04825103
20.94	2.308065555	0.466344784	-11.0924705	0.035748575	0.047472922	-0.048182441
20.96	2.308260846	0.4660381	-11.09419699	0.035741238	0.047485843	-0.048113691
20.98	2.308449748	0.465723432	-11.09584857	0.035733145	0.047497343	-0.048044793
21	2.30863229	0.46540088	-11.09742525	0.035724304	0.047507423	-0.047975761
21.02	2.308808498	0.465070542	-11.09892704	0.035714724	0.04751608	-0.047906605
21.04	2.308978402	0.464732514	-11.10035395	0.035704413	0.047523316	-0.04783734
21.06	2.309142028	0.464386892	-11.10170601	0.035693379	0.04752913	-0.047767979
21.08	2.309299405	0.464033769	-11.10298324	0.03568163	0.04753352	-0.047698533
21.1	2.309450561	0.463673238	-11.10418568	0.035669174	0.047536488	-0.047629016
21.12	2.309595524	0.463305389	-11.10531335	0.035656018	0.047538031	-0.047559441
21.14	2.309734324	0.462930312	-11.1063663	0.03564217	0.047538152	-0.047489822
21.16	2.309866989	0.462548093	-11.10734456	0.035627636	0.047536848	-0.04742017
21.18	2.309993547	0.462158821	-11.10824818	0.035612424	0.047534119	-0.0473505
21.2	2.310114027	0.461762578	-11.10907722	0.03559654	0.047529966	-0.047280825
21.22	2.310228458	0.46135945	-11.10983172	0.035579992	0.047524389	-0.047211157
21.24	2.31033687	0.460949517	-11.11051174	0.035562784	0.047517386	-0.04714151
21.26	2.310439291	0.46053286	-11.11111735	0.035544924	0.047508959	-0.047071898
21.28	2.310535751	0.460109557	-11.11164861	0.035526417	0.047499107	-0.047002333
21.3	2.310626279	0.459679687	-11.11210559	0.035507269	0.04748783	-0.046932829
21.32	2.310710903	0.459243325	-11.11248836	0.035487486	0.047475129	-0.046863399
21.34	2.310789654	0.458800546	-11.11279701	0.035467073	0.047461002	-0.046794057
21.36	2.310862562	0.458351422	-11.11303162	0.035446035	0.047445451	-0.046724815
21.38	2.310929654	0.457896026	-11.11319227	0.035424377	0.047428476	-0.046655688
21.4	2.310990962	0.457434426	-11.11327905	0.035402105	0.047410077	-0.046586687
21.42	2.311046514	0.456966693	-11.11329205	0.035379222	0.047390253	-0.046517828
21.44	2.31109634	0.456492892	-11.11323138	0.035355734	0.047369006	-0.046449122
21.46	2.31114047	0.456013091	-11.11309713	0.035331644	0.047346336	-0.046380583
21.48	2.311178933	0.455527352	-11.11288941	0.035306957	0.047322244	-0.046312225
21.5	2.31121176	0.455035739	-11.11260833	0.035281677	0.047296729	-0.04624406
21.52	2.31123898	0.454538315	-11.11225399	0.035255807	0.047269792	-0.046176102
21.54	2.311260622	0.454035137	-11.11182652	0.035229352	0.047241435	-0.046108364
21.56	2.311276718	0.453526266	-11.11132604	0.035202314	0.047211657	-0.046040858
21.58	2.311287295	0.453011759	-11.11075267	0.035174697	0.047180459	-0.045973599
21.6	2.311292385	0.452491672	-11.11010654	0.035146504	0.047147841	-0.045906598
21.62	2.311292017	0.451966059	-11.10938778	0.035117737	0.047113806	-0.045839869
21.64	2.311286221	0.451434973	-11.10859652	0.035088401	0.047078353	-0.045773425
21.66	2.311275026	0.450898468	-11.1077329	0.035058497	0.047041484	-0.045707279
21.68	2.311258464	0.450356592	-11.10679707	0.035028029	0.047003198	-0.045641443
21.7	2.311236564	0.449809397	-11.10578916	0.034996997	0.046963498	-0.04557593
21.72	2.311209356	0.449256929	-11.10470934	0.034965405	0.046922385	-0.045510753
21.74	2.311176869	0.448699235	-11.10355775	0.034933254	0.046879859	-0.045445924
21.76	2.311139135	0.448136362	-11.10233455	0.034900547	0.046835921	-0.045381456
21.78	2.311096182	0.447568353	-11.1010399	0.034867285	0.046790574	-0.045317361
21.8	2.311048041	0.446995252	-11.09967397	0.03483347	0.046743817	-0.045253652
21.82	2.310994743	0.446417101	-11.09823691	0.034799103	0.046695653	-0.045190342
21.84	2.310936317	0.445833939	-11.0967289	0.034764185	0.046646082	-0.045127441
21.86	2.310872793	0.445245807	-11.09515012	0.034728719	0.046595107	-0.045064963
21.88	2.310804202	0.444652744	-11.09350075	0.034692704	0.046542728	-0.04500292
21.9	2.310730573	0.444054786	-11.09178096	0.034656141	0.046488947	-0.044941323
21.92	2.310651938	0.443451969	-11.08999093	0.034619033	0.046433767	-0.044880184
21.94	2.310568325	0.442844329	-11.08813087	0.034581378	0.046377187	-0.044819516
21.96	2.310479767	0.442231899	-11.08620095	0.034543179	0.046319211	-0.04475933
21.98	2.310386292	0.441614712	-11.08420137	0.034504434	0.046259839	-0.044699638
22	2.310287931	0.440992801	-11.08213234	0.034465145	0.046199074	-0.04464045
22.02	2.310184715	0.440366196	-11.07999405	0.034425312	0.046136918	-0.044581779
22.04	2.310076673	0.439734926	-11.07778671	0.034384934	0.046073372	-0.044523637
22.06	2.309963837	0.439099021	-11.07551053	0.034344012	0.046008438	-0.044466033
22.08	2.309846238	0.438458508	-11.07316571	0.034302546	0.045942119	-0.04440898
22.1	2.309723904	0.437813415	-11.07075248	0.034260535	0.045874416	-0.044352488
22.12	2.309596868	0.437163767	-11.06827105	0.034217979	0.045805332	-0.044296569
22.14	2.309465159	0.43650959	-11.06572164	0.034174878	0.045734869	-0.044241233
22.16	2.309328809	0.435850907	-11.06310448	0.03413123	0.04566303	-0.044186491
22.18	2.309187848	0.435187741	-11.0604198	0.034087036	0.045589815	-0.044132354
22.2	2.309042307	0.434520116	-11.05766783	0.034042295	0.045515229	-0.044078831
22.22	2.308892216	0.433848053	-11.0548488	0.033997006	0.045439272	-0.044025935
22.24	2.308737608	0.433171573	-11.05196294	0.033951167	0.045361949	-0.043973674
22.26	2.308578512	0.432490695	-11.04901051	0.033904778	0.045283261	-0.04392206
22.28	2.30841496	0.431805439	-11.04599175	0.033857838	0.045203211	-0.043871102
22.3	2.308246982	0.431115823	-11.0429069	0.033810345	0.045121801	-0.04382081
22.32	2.308074611	0.430421866	-11.03975621	0.033762299	0.045039035	-0.043771194
22.34	2.307897877	0.429723584	-11.03653994	0.033713697	0.044954915	-0.043722265
22.36	2.307716812	0.429020993	-11.03325835	0.03366454	0.044869443	-0.04367403
22.38	2.307531447	0.42831411	-11.02991168	0.033614824	0.044782624	-0.043626501
22.4	2.307341814	0.427602949	-11.02650022	0.033564549	0.044694459	-0.043579687
22.42	2.307147943	0.426887525	-11.02302422	0.033513713	0.044604952	-0.043533596
22.44	2.306949867	0.426167851	-11.01948395	0.033462313	0.044514106	-0.043488239
22.46	2.306747618	0.425443942	-11.01587968	0.03341035	0.044421924	-0.043443624
22.48	2.306541227	0.424715808	-11.0122117	0.03335782	0.044328409	-0.04339976
22.5	2.306330727	0.423983464	-11.00848027	0.033304722	0.044233564	-0.043356657
22.52	2.306116148	0.423246919	-11.00468569	0.033251053	0.044137393	-0.043314322
22.54	2.305897525	0.422506186	-11.00082822	0.033196813	0.044039899	-0.043272764
22.56	2.305674887	0.421761275	-10.99690817	0.033141998	0.043941085	-0.043231993
22.58	2.305448269	0.421012196	-10.99292582	0.033086608	0.043840955	-0.043192017
22.6	2.305217702	0.420258958	-10.98888146	0.033030638	0.043739512	-0.043152843
22.62	2.304983219	0.419501571	-10.98477539	0.032974089	0.04363676	-0.04311448
22.64	2.304744853	0.418740044	-10.98060791	0.032916956	0.043532703	-0.043076936
22.66	2.304502636	0.417974385	-10.97637932	0.032859238	0.043427344	-0.04304022
22.68	2.304256601	0.417204602	-10.97208993	0.032800934	0.043320687	-0.043004338
22.7	2.304006781	0.416430703	-10.96774004	0.032742039	0.043212735	-0.042969299
22.72	2.303753209	0.415652695	-10.96332996	0.032682552	0.043103493	-0.042935111
22.74	2.303495919	0.414870586	-10.95886001	0.032622471	0.042992965	-0.04290178
22.76	2.303234943	0.414084381	-10.9543305	0.032561793	0.042881154	-0.042869315
22.78	2.302970315	0.413294088	-10.94974175	0.032500516	0.042768065	-0.042837723
22.8	2.30270207	0.412499713	-10.94509408	0.032438636	0.042653701	-0.04280701
22.82	2.302430239	0.411701261	-10.94038782	0.032376153	0.042538066	-0.042777185
22.84	2.302154858	0.410898738	-10.93562329	0.032313062	0.042421166	-0.042748253
22.86	2.30187596	0.41009215	-10.93080083	0.032249362	0.042303003	-0.042720223
22.88	2.30159358	0.409281503	-10.92592076	0.03218505	0.042183583	-0.0426931
22.9	2.301307751	0.4084668	-10.92098342	0.032120123	0.04206291	-0.042666892
22.92	2.301018507	0.407648047	-10.91598915	0.032054579	0.041940987	-0.042641604
22.94	2.300725884	0.40682525	-10.91093828	0.031988415	0.04181782	-0.042617244
22.96	2.300429916	0.405998411	-10.90583117	0.031921628	0.041693414	-0.042593818
22.98	2.300130638	0.405167537	-10.90066815	0.031854217	0.041567771	-0.042571332
23	2.299828084	0.404332631	-10.89544958	0.031786177	0.041440899	-0.042549793
23.02	2.299522289	0.403493699	-10.8901758	0.031717507	0.041312799	-0.042529206
23.04	2.299213289	0.402650743	-10.88484717	0.031648203	0.041183479	-0.042509577
23.06	2.298901119	0.401803768	-10.87946404	0.031578264	0.041052942	-0.042490912
23.08	2.298585815	0.400952779	-10.87402677	0.031507686	0.040921193	-0.042473218
23.1	2.298267411	0.40009778	-10.86853572	0.031436466	0.040788237	-0.042456499
23.12	2.297945944	0.399238774	-10.86299126	0.031364603	0.04065408	-0.042440762
23.14	2.297621449	0.398375766	-10.85739375	0.031292093	0.040518725	-0.042426011
23.16	2.297293962	0.39750876	-10.85174356	0.031218933	0.040382178	-0.042412253
23.18	2.29696352	0.39663776	-10.84604105	0.031145122	0.040244445	-0.042399493
23.2	2.296630159	0.39576277	-10.84028661	0.031070655	0.04010553	-0.042387735
23.22	2.296293915	0.394883795	-10.8344806	0.030995532	0.039965439	-0.042376985
23.24	2.295954825	0.394000839	-10.8286234	0.030919748	0.039824176	-0.042367249
23.26	2.295612925	0.393113905	-10.8227154	0.030843302	0.039681747	-0.04235853
23.28	2.295268252	0.392222999	-10.81675696	0.03076619	0.039538158	-0.042350835
23.3	2.294920843	0.391328125	-10.81074849	0.030688411	0.039393414	-0.042344167
23.32	2.294570735	0.390429288	-10.80469036	0.030609961	0.03924752	-0.042338532
23.34	2.294217965	0.389526493	-10.79858296	0.030530837	0.039100482	-0.042333934
23.36	2.293862571	0.388619743	-10.79242668	0.030451038	0.038952305	-0.042330377
23.38	2.29350459	0.387709045	-10.78622192	0.030370561	0.038802996	-0.042327867
23.4	2.29314406	0.386794404	-10.77996907	0.030289403	0.038652559	-0.042326407
23.42	2.292781018	0.385875825	-10.77366853	0.030207562	0.038501001	-0.042326003
23.44	2.292415503	0.384953312	-10.76732069	0.030125034	0.038348327	-0.042326657
23.46	2.292047552	0.384026873	-10.76092596	0.030041819	0.038194543	-0.042328375
23.48	2.291677203	0.383096513	-10.75448474	0.029957913	0.038039655	-0.04233116
23.5	2.291304495	0.382162237	-10.74799744	0.029873313	0.037883669	-0.042335017
23.52	2.290929465	0.381224053	-10.74146446	0.029788018	0.037726591	-0.042339949
23.54	2.290552154	0.380281967	-10.73488621	0.029702025	0.037568427	-0.04234596
23.56	2.290172598	0.379335984	-10.7282631	0.029615331	0.037409182	-0.042353055
23.58	2.289790837	0.378386113	-10.72159555	0.029527935	0.037248864	-0.042361237
23.6	2.28940691	0.37743236	-10.71488397	0.029439834	0.037087479	-0.042370509
23.62	2.289020855	0.376474733	-10.70812878	0.029351025	0.036925032	-0.042380876
23.64	2.288632712	0.375513239	-10.7013304	0.029261508	0.03676153	-0.04239234
23.66	2.288242519	0.374547887	-10.69448924	0.029171278	0.036596979	-0.042404906
23.68	2.287850317	0.373578683	-10.68760572	0.029080335	0.036431386	-0.042418576
23.7	2.287456144	0.372605638	-10.68068028	0.028988675	0.036264756	-0.042433354
23.72	2.28706004	0.371628759	-10.67371334	0.028896297	0.036097098	-0.042449244
23.74	2.286662044	0.370648055	-10.66670533	0.0288032	0.035928416	-0.042466249
23.76	2.286262196	0.369663536	-10.65965667	0.02870938	0.035758719	-0.042484371
23.78	2.285860536	0.368675211	-10.65256779	0.028614835	0.035588011	-0.042503615
23.8	2.285457104	0.36768309	-10.64543913	0.028519565	0.035416301	-0.042523982
23.82	2.285051939	0.366687183	-10.63827112	0.028423566	0.035243595	-0.042545477
23.84	2.284645081	0.365687501	-10.6310642	0.028326837	0.035069899	-0.042568102
23.86	2.284236571	0.364684054	-10.6238188	0.028229376	0.034895221	-0.04259186
23.88	2.283826449	0.363676853	-10.61653537	0.028131182	0.034719567	-0.042616754
23.9	2.283414755	0.36266591	-10.60921433	0.028032252	0.034542944	-0.042642786
23.92	2.283001529	0.361651237	-10.60185614	0.027932585	0.03436536	-0.04266996
23.94	2.282586812	0.360632844	-10.59446124	0.027832179	0.034186821	-0.042698279
23.96	2.282170643	0.359610746	-10.58703007	0.027731032	0.034007335	-0.042727744
23.98	2.281753064	0.358584954	-10.57956307	0.027629143	0.033826908	-0.042758358
24	2.281334114	0.357555481	-10.5720607	0.02752651	0.033645549	-0.042790125
24.02	2.280913835	0.356522341	-10.5645234	0.027423132	0.033463263	-0.042823047
24.04	2.280492267	0.355485547	-10.55695163	0.027319006	0.033280059	-0.042857125
24.06	2.280069451	0.354445114	-10.54934582	0.027214133	0.033095943	-0.042892363
24.08	2.279645427	0.353401056	-10.54170644	0.02710851	0.032910924	-0.042928763
24.1	2.279220236	0.352353387	-10.53403394	0.027002136	0.032725008	-0.042966328
24.12	2.278793918	0.351302122	-10.52632877	0.026895009	0.032538203	-0.043005059
24.14	2.278366515	0.350247278	-10.51859139	0.026787129	0.032350517	-0.043044959
24.16	2.277938066	0.349188869	-10.51082226	0.026678494	0.032161957	-0.04308603
24.18	2.277508614	0.348126912	-10.50302183	0.026569103	0.031972532	-0.043128274
24.2	2.277078198	0.347061423	-10.49519056	0.026458954	0.031782247	-0.043171694
24.22	2.27664686	0.34599242	-10.48732892	0.026348047	0.031591113	-0.043216291
24.24	2.276214639	0.344919918	-10.47943736	0.026236381	0.031399135	-0.043262069
24.26	2.275781577	0.343843937	-10.47151635	0.026123955	0.031206322	-0.043309027
24.28	2.275347715	0.342764493	-10.46356634	0.026010767	0.031012682	-0.04335717
24.3	2.274913093	0.341681605	-10.45558781	0.025896817	0.030818223	-0.043406498
24.32	2.274477751	0.340595291	-10.44758121	0.025782104	0.030622953	-0.043457014
24.34	2.274041731	0.339505571	-10.43954702	0.025666627	0.03042688	-0.043508719
24.36	2.273605073	0.338412464	-10.4314857	0.025550386	0.030230012	-0.043561616
24.38	2.273167817	0.337315989	-10.42339772	0.025433379	0.030032357	-0.043615705
24.4	2.272730005	0.336216166	-10.41528354	0.025315606	0.029833923	-0.04367099
24.42	2.272291676	0.335113017	-10.40714364	0.025197067	0.029634719	-0.043727471
24.44	2.27185287	0.334006561	-10.39897848	0.025077761	0.029434753	-0.043785151
24.46	2.271413629	0.332896819	-10.39078853	0.024957687	0.029234033	-0.043844031
24.48	2.270973992	0.331783814	-10.38257427	0.024836844	0.029032567	-0.043904112
24.5	2.270534	0.330667567	-10.37433616	0.024715233	0.028830365	-0.043965396
24.52	2.270093692	0.3295481	-10.36607469	0.024592854	0.028627434	-0.044027886
24.54	2.269653108	0.328425436	-10.35779031	0.024469705	0.028423783	-0.044091582
24.56	2.269212289	0.327299597	-10.34948351	0.024345787	0.028219421	-0.044156486
24.58	2.268771274	0.326170608	-10.34115476	0.024221099	0.028014356	-0.044222599
24.6	2.268330103	0.32503849	-10.33280453	0.024095641	0.027808597	-0.044289922
24.62	2.267888816	0.323903269	-10.3244333	0.023969413	0.027602153	-0.044358458
24.64	2.267447451	0.322764969	-10.31604154	0.023842415	0.027395033	-0.044428208
24.66	2.267006048	0.321623614	-10.30762973	0.023714648	0.027187244	-0.044499172
24.68	2.266564646	0.32047923	-10.29919834	0.02358611	0.026978797	-0.044571353
24.7	2.266123285	0.319331841	-10.29074785	0.023456803	0.026769701	-0.044644751
24.72	2.265682003	0.318181473	-10.28227874	0.023326726	0.026559963	-0.044719368
24.74	2.265240839	0.317028153	-10.27379147	0.023195879	0.026349594	-0.044795204
24.76	2.264799831	0.315871907	-10.26528654	0.023064264	0.026138601	-0.044872262
24.78	2.264359018	0.314712761	-10.25676442	0.022931879	0.025926996	-0.044950541
24.8	2.263918438	0.313550743	-10.24822558	0.022798727	0.025714785	-0.045030044
24.82	2.263478129	0.31238588	-10.2396705	0.022664806	0.02550198	-0.045110771
24.84	2.263038129	0.311218199	-10.23109966	0.022530117	0.025288589	-0.045192723
24.86	2.262598476	0.310047729	-10.22251354	0.022394662	0.025074621	-0.045275901
24.88	2.262159206	0.308874499	-10.21391261	0.02225844	0.024860086	-0.045360307
24.9	2.261720358	0.307698536	-10.20529736	0.022121453	0.024644993	-0.04544594
24.92	2.261281969	0.306519871	-10.19666825	0.0219837	0.024429352	-0.045532802
24.94	2.260844075	0.305338532	-10.18802578	0.021845184	0.024213172	-0.045620894
24.96	2.260406712	0.304154549	-10.17937041	0.021705903	0.023996463	-0.045710217
24.98	2.259969918	0.302967953	-10.17070262	0.021565861	0.023779235	-0.04580077
25	2.259533728	0.301778773	-10.16202289	0.021425056	0.023561496	-0.045892556
25.02	2.259098178	0.30058704	-10.1533317	0.021283491	0.023343258	-0.045985573
25.04	2.258663305	0.299392786	-10.14462953	0.021141167	0.023124529	-0.046079824
25.06	2.258229142	0.298196042	-10.13591684	0.020998083	0.022905319	-0.046175309
25.08	2.257795726	0.296996839	-10.12719413	0.020854243	0.022685639	-0.046272028
25.1	2.257363091	0.295795209	-10.11846186	0.020709647	0.022465498	-0.046369981
25.12	2.256931272	0.294591185	-10.10972051	0.020564295	0.022244906	-0.046469169
25.14	2.256500303	0.293384799	-10.10097056	0.020418191	0.022023873	-0.046569593
25.16	2.256070218	0.292176085	-10.09221248	0.020271334	0.02180241	-0.046671253
25.18	2.255641051	0.290965075	-10.08344675	0.020123726	0.021580525	-0.046774148
25.2	2.255212834	0.289751804	-10.07467385	0.01997537	0.021358231	-0.04687828
25.22	2.254785603	0.288536304	-10.06589423	0.019826266	0.021135536	-0.046983648
25.24	2.254359388	0.28731861	-10.05710839	0.019676416	0.020912451	-0.047090253
25.26	2.253934222	0.286098757	-10.0483168	0.019525822	0.020688987	-0.047198095
25.28	2.253510138	0.284876779	-10.03951991	0.019374486	0.020465153	-0.047307173
25.3	2.253087168	0.283652712	-10.03071822	0.019222409	0.02024096	-0.047417487
25.32	2.252665342	0.28242659	-10.02191219	0.019069594	0.020016419	-0.047529038
25.34	2.252244692	0.28119845	-10.01310229	0.018916042	0.01979154	-0.047641826
25.36	2.251825248	0.279968327	-10.00428899	0.018761755	0.019566333	-0.047755849
25.38	2.251407041	0.278736258	-9.995472763	0.018606736	0.01934081	-0.047871109
25.4	2.250990102	0.27750228	-9.986654076	0.018450986	0.01911498	-0.047987604
25.42	2.250574458	0.276266429	-9.977833398	0.018294508	0.018888855	-0.048105333
25.44	2.250160141	0.275028742	-9.969011197	0.018137304	0.018662445	-0.048224298
25.46	2.249747178	0.273789256	-9.960187939	0.017979376	0.018435761	-0.048344497
25.48	2.249335598	0.272548011	-9.95136409	0.017820728	0.018208814	-0.048465929
25.5	2.248925429	0.271305042	-9.942540116	0.01766136	0.017981615	-0.048588594
25.52	2.248516699	0.27006039	-9.933716481	0.017501277	0.017754175	-0.048712491
25.54	2.248109435	0.268814093	-9.924893648	0.01734048	0.017526504	-0.04883762
25.56	2.247703663	0.267566189	-9.916072081	0.017178972	0.017298614	-0.048963979
25.58	2.247299411	0.266316717	-9.90725224	0.017016756	0.017070516	-0.049091567
25.6	2.246896704	0.265065718	-9.898434587	0.016853835	0.01684222	-0.049220384
25.62	2.246495568	0.26381323	-9.889619581	0.016690211	0.016613739	-0.049350428
25.64	2.246096027	0.262559294	-9.880807681	0.016525888	0.016385083	-0.049481698
25.66	2.245698107	0.261303951	-9.871999345	0.016360869	0.016156264	-0.049614193
25.68	2.245301831	0.260047241	-9.863195029	0.016195156	0.015927292	-0.049747912
25.7	2.244907224	0.258789204	-9.854395189	0.016028754	0.01569818	-0.049882853
25.72	2.244514308	0.257529883	-9.84560028	0.015861664	0.015468938	-0.050019014
25.74	2.244123107	0.256269318	-9.836810754	0.015693891	0.015239579	-0.050156395
25.76	2.243733642	0.255007551	-9.828027064	0.015525438	0.015010113	-0.050294992
25.78	2.243345936	0.253744624	-9.819249661	0.015356309	0.014780552	-0.050434806
25.8	2.242960009	0.25248058	-9.810478995	0.015186506	0.014550908	-0.050575832
25.82	2.242575883	0.251215462	-9.801715514	0.015016034	0.014321192	-0.050718071
25.84	2.242193579	0.249949311	-9.792959666	0.014844896	0.014091416	-0.050861519
25.86	2.241813115	0.248682172	-9.784211896	0.014673096	0.013861592	-0.051006175
25.88	2.241434512	0.247414088	-9.77547265	0.014500639	0.013631731	-0.051152035
25.9	2.241057787	0.246145102	-9.76674237	0.014327527	0.013401846	-0.051299099
25.92	2.24068296	0.244875259	-9.758021499	0.014153765	0.013171948	-0.051447363
25.94	2.240310049	0.243604603	-9.749310478	0.013979357	0.012942048	-0.051596825
25.96	2.239939069	0.242333178	-9.740609746	0.013804307	0.01271216	-0.051747482
25.98	2.23957004	0.24106103	-9.731919741	0.01362862	0.012482295	-0.051899331
26	2.239202975	0.239788203	-9.723240899	0.013452299	0.012252465	-0.05205237
26.02	2.238837892	0.238514743	-9.714573655	0.01327535	0.012022682	-0.052206595
26.04	2.238474805	0.237240696	-9.705918443	0.013097777	0.011792958	-0.052362003
26.06	2.238113728	0.235966108	-9.697275695	0.012919584	0.011563305	-0.052518592
26.08	2.237754677	0.234691025	-9.688645841	0.012740776	0.011333736	-0.052676357
26.1	2.237397664	0.233415494	-9.68002931	0.012561359	0.011104263	-0.052835296
26.12	2.237042702	0.232139562	-9.67142653	0.012381336	0.010874897	-0.052995404
26.14	2.236689803	0.230863275	-9.662837927	0.012200712	0.010645653	-0.053156679
26.16	2.23633898	0.229586682	-9.654263924	0.012019494	0.01041654	-0.053319115
26.18	2.235990244	0.22830983	-9.645704944	0.011837685	0.010187573	-0.053482709
26.2	2.235643604	0.227032768	-9.637161408	0.011655292	0.009958764	-0.053647458
26.22	2.235299072	0.225755543	-9.628633735	0.011472319	0.009730125	-0.053813357
26.24	2.234956656	0.224478204	-9.620122344	0.011288772	0.009501668	-0.0539804
26.26	2.234616366	0.223200801	-9.611627649	0.011104656	0.009273406	-0.054148585
26.28	2.234278209	0.221923382	-9.603150064	0.010919978	0.009045353	-0.054317907
26.3	2.233942194	0.220645998	-9.594690003	0.010734742	0.008817519	-0.05448836
26.32	2.233608327	0.219368697	-9.586247875	0.010548955	0.008589919	-0.054659939
26.34	2.233276616	0.218091531	-9.57782409	0.010362623	0.008362564	-0.05483264
26.36	2.232947065	0.21681455	-9.569419054	0.01017575	0.008135468	-0.055006458
26.38	2.23261968	0.215537804	-9.561033173	0.009988345	0.007908644	-0.055181386
26.4	2.232294466	0.214261345	-9.552666849	0.009800412	0.007682103	-0.05535742
26.42	2.231971427	0.212985224	-9.544320485	0.009611958	0.00745586	-0.055534554
26.44	2.231650566	0.211709493	-9.53599448	0.00942299	0.007229927	-0.055712783
26.46	2.231331886	0.210434204	-9.527689232	0.009233513	0.007004316	-0.055892099
26.48	2.23101539	0.209159409	-9.519405135	0.009043535	0.006779041	-0.056072498
26.5	2.230701078	0.207885161	-9.511142585	0.008853063	0.006554115	-0.056253972
26.52	2.230388952	0.206611512	-9.502901973	0.008662102	0.006329551	-0.056436515
26.54	2.230079013	0.205338518	-9.494683689	0.008470661	0.006105362	-0.056620122
26.56	2.229771259	0.20406623	-9.486488121	0.008278746	0.005881561	-0.056804784
26.58	2.22946569	0.202794703	-9.478315655	0.008086364	0.005658161	-0.056990496
26.6	2.229162305	0.201523992	-9.470166674	0.007893522	0.005435175	-0.05717725
26.62	2.228861101	0.20025415	-9.462041562	0.007700229	0.005212617	-0.057365038
26.64	2.228562076	0.198985233	-9.453940696	0.007506491	0.004990499	-0.057553854
26.66	2.228265225	0.197717297	-9.445864456	0.007312315	0.004768836	-0.05774369
26.68	2.227970546	0.196450396	-9.437813217	0.007117711	0.00454764	-0.057934537
26.7	2.227678033	0.195184587	-9.429787353	0.006922684	0.004326924	-0.058126389
26.72	2.227387681	0.193919926	-9.421787235	0.006727244	0.004106702	-0.058319237
26.74	2.227099484	0.19265647	-9.413813232	0.006531399	0.003886988	-0.058513072
26.76	2.226813435	0.191394276	-9.405865712	0.006335156	0.003667794	-0.058707887
26.78	2.226529528	0.190133401	-9.39794504	0.006138524	0.003449135	-0.058903672
26.8	2.226247754	0.188873903	-9.390051579	0.005941512	0.003231023	-0.059100419
26.82	2.225968104	0.18761584	-9.38218569	0.005744127	0.003013472	-0.059298118
26.84	2.225690571	0.18635927	-9.374347731	0.005546379	0.002796495	-0.059496761
26.86	2.225415143	0.185104252	-9.366538058	0.005348276	0.002580107	-0.059696338
26.88	2.22514181	0.183850846	-9.358757027	0.005149827	0.00236432	-0.059896839
26.9	2.224870563	0.182599111	-9.351004988	0.004951041	0.002149148	-0.060098255
26.92	2.224601387	0.181349106	-9.343282292	0.004751928	0.001934605	-0.060300575
26.94	2.224334273	0.180100893	-9.335589286	0.004552496	0.001720704	-0.06050379
26.96	2.224069206	0.17885453	-9.327926316	0.004352755	0.00150746	-0.060707889
26.98	2.223806172	0.177610081	-9.320293723	0.004152715	0.001294885	-0.060912862
27	2.223545159	0.176367605	-9.31269185	0.003952384	0.001082993	-0.061118697
27.02	2.223286151	0.175127164	-9.305121033	0.003751774	0.000871798	-0.061325384
27.04	2.223029132	0.173888822	-9.29758161	0.003550893	0.000661314	-0.061532912
27.06	2.222774086	0.172652639	-9.290073915	0.003349753	0.000451554	-0.061741269
27.08	2.222520997	0.171418679	-9.282598277	0.003148362	0.000242532	-0.061950444
27.1	2.222269848	0.170187006	-9.275155028	0.002946731	3.43E-05	-0.062160424
27.12	2.22202062	0.168957682	-9.267744492	0.002744871	-0.000173242	-0.062371199
27.14	2.221773295	0.167730773	-9.260366996	0.002542793	-0.000379967	-0.062582755
27.16	2.221527854	0.166506341	-9.25302286	0.002340506	-0.000585899	-0.062795081
27.18	2.221284277	0.165284453	-9.245712405	0.002138022	-0.000791024	-0.063008163
27.2	2.221042544	0.164065173	-9.238435948	0.001935352	-0.000995328	-0.063221989
27.22	2.220802633	0.162848566	-9.231193803	0.001732506	-0.001198798	-0.063436547
27.24	2.220564524	0.1616347	-9.223986284	0.001529497	-0.001401419	-0.063651821
27.26	2.220328194	0.16042364	-9.2168137	0.001326335	-0.001603178	-0.063867801
27.28	2.22009362	0.159215452	-9.209676359	0.001123032	-0.001804061	-0.06408447
27.3	2.219860779	0.158010205	-9.202574566	0.0009196	-0.002004054	-0.064301817
27.32	2.219629647	0.156807966	-9.195508625	0.00071605	-0.002203143	-0.064519826
27.34	2.2194002	0.155608802	-9.188478835	0.000512394	-0.002401315	-0.064738483
27.36	2.219172412	0.154412783	-9.181485495	0.000308644	-0.002598555	-0.064957775
27.38	2.218946258	0.153219977	-9.174528901	0.000104814	-0.00279485	-0.065177685
27.4	2.218721712	0.152030453	-9.167609344	-9.91E-05	-0.002990186	-0.0653982
27.42	2.218498747	0.150844281	-9.160727117	-0.000303043	-0.003184549	-0.065619304
27.44	2.218277335	0.14966153	-9.153882507	-0.000507044	-0.003377924	-0.065840982
27.46	2.218057449	0.148482273	-9.147075799	-0.000711076	-0.003570299	-0.066063218
27.48	2.21783906	0.147306578	-9.140307278	-0.000915126	-0.00376166	-0.066285996
27.5	2.21762214	0.146134518	-9.133577224	-0.001119181	-0.003951992	-0.066509301
27.52	2.217406658	0.144966165	-9.126885916	-0.001323229	-0.004141282	-0.066733116
27.54	2.217192586	0.14380159	-9.120233628	-0.001527255	-0.004329515	-0.066957425
27.56	2.216979891	0.142640867	-9.113620635	-0.001731247	-0.004516679	-0.06718221
27.58	2.216768544	0.141484067	-9.107047208	-0.00193519	-0.004702759	-0.067407457
27.6	2.216558513	0.140331265	-9.100513615	-0.002139072	-0.004887741	-0.067633146
27.62	2.216349766	0.139182534	-9.094020121	-0.002342877	-0.005071611	-0.067859261
27.64	2.21614227	0.138037949	-9.08756699	-0.002546592	-0.005254357	-0.068085785
27.66	2.215935992	0.136897584	-9.081154484	-0.002750204	-0.005435964	-0.0683127
27.68	2.215730899	0.135761515	-9.07478286	-0.002953696	-0.005616417	-0.068539988
27.7	2.215526956	0.134629816	-9.068452375	-0.003157056	-0.005795704	-0.06876763
27.72	2.21532413	0.133502564	-9.062163281	-0.003360268	-0.005973811	-0.068995609
27.74	2.215122385	0.132379836	-9.05591583	-0.003563317	-0.006150724	-0.069223906
27.76	2.214921686	0.131261708	-9.049710271	-0.003766189	-0.00632643	-0.069452502
27.78	2.214721998	0.130148257	-9.043546849	-0.003968869	-0.006500914	-0.069681378
27.8	2.214523283	0.129039561	-9.037425807	-0.004171341	-0.006674163	-0.069910515
27.82	2.214325506	0.127935698	-9.031347387	-0.004373591	-0.006846163	-0.070139895
27.84	2.21412863	0.126836747	-9.025311827	-0.004575602	-0.007016901	-0.070369496
27.86	2.213932616	0.125742786	-9.019319363	-0.004777359	-0.007186363	-0.0705993
27.88	2.213737428	0.124653895	-9.013370228	-0.004978846	-0.007354535	-0.070829287
27.9	2.213543027	0.123570154	-9.007464654	-0.005180048	-0.007521405	-0.071059436
27.92	2.213349375	0.122491642	-9.001602868	-0.005380948	-0.007686958	-0.071289727
27.94	2.213156431	0.121418441	-8.995785097	-0.005581531	-0.007851181	-0.071520139
27.96	2.212964158	0.120350631	-8.990011565	-0.005781779	-0.00801406	-0.071750653
27.98	2.212772516	0.119288294	-8.984282492	-0.005981677	-0.008175583	-0.071981246
28	2.212581464	0.118231512	-8.978598097	-0.006181207	-0.008335735	-0.072211898
28.02	2.212390963	0.117180366	-8.972958595	-0.006380354	-0.008494504	-0.072442588
28.04	2.212200971	0.11613494	-8.967364202	-0.0065791	-0.008651876	-0.072673294
28.06	2.212011448	0.115095317	-8.961815126	-0.006777428	-0.008807837	-0.072903995
28.08	2.211822353	0.11406158	-8.956311579	-0.006975321	-0.008962375	-0.073134668
28.1	2.211633644	0.113033813	-8.950853764	-0.007172762	-0.009115476	-0.073365291
28.12	2.21144528	0.1120121	-8.945441887	-0.007369734	-0.009267127	-0.073595843
28.14	2.211257218	0.110996526	-8.940076149	-0.007566219	-0.009417316	-0.073826302
28.16	2.211069417	0.109987176	-8.934756748	-0.007762198	-0.009566028	-0.074056644
28.18	2.210881834	0.108984136	-8.929483881	-0.007957656	-0.009713251	-0.074286847
28.2	2.210694426	0.107987491	-8.924257742	-0.008152573	-0.009858972	-0.074516888
28.22	2.21050715	0.106997327	-8.919078522	-0.008346932	-0.010003177	-0.074746744
28.24	2.210319964	0.106013732	-8.913946411	-0.008540714	-0.010145855	-0.074976392
28.26	2.210132825	0.105036791	-8.908861596	-0.008733901	-0.010286992	-0.075205809
28.28	2.209945688	0.104066594	-8.903824261	-0.008926475	-0.010426575	-0.075434972
28.3	2.209758511	0.103103226	-8.898834587	-0.009118417	-0.010564592	-0.075663855
28.32	2.209571249	0.102146777	-8.893892755	-0.009309709	-0.01070103	-0.075892437
28.34	2.20938386	0.101197334	-8.888998942	-0.009500331	-0.010835876	-0.076120693
28.36	2.209196299	0.100254987	-8.884153323	-0.009690265	-0.010969118	-0.076348599
28.38	2.209008522	0.099319825	-8.87935607	-0.009879493	-0.011100743	-0.076576131
28.4	2.208820486	0.098391936	-8.874607354	-0.010067994	-0.011230738	-0.076803265
28.42	2.208632145	0.097471412	-8.869907342	-0.010255749	-0.011359092	-0.077029976
28.44	2.208443457	0.096558342	-8.8652562	-0.01044274	-0.011485792	-0.077256239
28.46	2.208254378	0.095652817	-8.860654092	-0.010628947	-0.011610826	-0.077482031
28.48	2.208064862	0.094754927	-8.856101177	-0.01081435	-0.011734181	-0.077707326
28.5	2.207874865	0.093864764	-8.851597616	-0.01099893	-0.011855845	-0.0779321
28.52	2.207684345	0.092982418	-8.847143564	-0.011182666	-0.011975807	-0.078156328
28.54	2.207493256	0.092107983	-8.842739176	-0.01136554	-0.012094054	-0.078379984
28.56	2.207301554	0.091241549	-8.838384603	-0.011547531	-0.012210575	-0.078603043
28.58	2.207109197	0.09038321	-8.834079996	-0.011728619	-0.012325356	-0.078825481
28.6	2.206916139	0.089533057	-8.829825501	-0.011908784	-0.012438388	-0.079047272
28.62	2.206722337	0.088691184	-8.825621264	-0.012088005	-0.012549658	-0.07926839
28.64	2.206527747	0.087857684	-8.821467429	-0.012266263	-0.012659154	-0.079488811
28.66	2.206332326	0.08703265	-8.817364135	-0.012443538	-0.012766864	-0.079708508
28.68	2.206136031	0.086216176	-8.813311523	-0.012619808	-0.012872779	-0.079927456
28.7	2.205938818	0.085408356	-8.809309727	-0.012795052	-0.012976885	-0.08014563
28.72	2.205740644	0.084609284	-8.805358884	-0.012969252	-0.013079171	-0.080363003
28.74	2.205541467	0.083819054	-8.801459125	-0.013142385	-0.013179628	-0.08057955
28.76	2.205341245	0.083037761	-8.79761058	-0.013314431	-0.013278242	-0.080795245
28.78	2.205139933	0.0822655	-8.793813379	-0.01348537	-0.013375004	-0.081010062
28.8	2.204937492	0.081502365	-8.790067646	-0.01365518	-0.013469902	-0.081223976
28.82	2.204733879	0.080748453	-8.786373507	-0.01382384	-0.013562925	-0.081436961
28.84	2.204529052	0.080003858	-8.782731082	-0.013991329	-0.013654064	-0.08164899
28.86	2.204322971	0.079268675	-8.779140493	-0.014157627	-0.013743306	-0.081860038
28.88	2.204115594	0.078543001	-8.775601858	-0.014322712	-0.013830641	-0.082070078
28.9	2.203906881	0.077826932	-8.772115292	-0.014486563	-0.01391606	-0.082279085
28.92	2.203696793	0.077120563	-8.768680909	-0.014649158	-0.013999551	-0.082487034
28.94	2.20348529	0.07642399	-8.765298823	-0.014810477	-0.014081104	-0.082693897
28.96	2.203272331	0.075737311	-8.761969142	-0.014970499	-0.01416071	-0.082899649
28.98	2.203057879	0.07506062	-8.758691977	-0.015129201	-0.014238357	-0.083104265
29	2.202841896	0.074394015	-8.755467432	-0.015286563	-0.014314037	-0.083307718
29.02	2.202624343	0.073737592	-8.752295614	-0.015442563	-0.014387739	-0.083509982
29.04	2.202405183	0.073091448	-8.749176624	-0.015597179	-0.014459453	-0.083711032
29.06	2.202184379	0.072455679	-8.746110564	-0.015750391	-0.01452917	-0.083910842
29.08	2.201961894	0.071830382	-8.743097534	-0.015902177	-0.01459688	-0.084109386
29.1	2.201737695	0.071215655	-8.74013763	-0.016052515	-0.014662574	-0.084306639
29.12	2.201511744	0.070611593	-8.737230948	-0.016201384	-0.014726243	-0.084502575
29.14	2.201284007	0.070018293	-8.734377584	-0.016348763	-0.014787877	-0.084697168
29.16	2.201054451	0.069435852	-8.731577628	-0.016494629	-0.014847467	-0.084890393
29.18	2.200823043	0.068864368	-8.728831171	-0.016638962	-0.014905005	-0.085082226
29.2	2.200589748	0.068303936	-8.726138303	-0.016781739	-0.014960481	-0.085272639
29.22	2.200354537	0.067754654	-8.723499111	-0.016922941	-0.015013887	-0.08546161
29.24	2.200117377	0.067216618	-8.720913681	-0.017062544	-0.015065214	-0.085649111
29.26	2.199878238	0.066689925	-8.718382096	-0.017200528	-0.015114454	-0.085835119
29.28	2.199637089	0.06617467	-8.71590444	-0.017336871	-0.015161599	-0.086019608
29.3	2.199393903	0.065670952	-8.713480794	-0.017471552	-0.01520664	-0.086202554
29.32	2.199148651	0.065178865	-8.711111237	-0.01760455	-0.015249569	-0.086383933
29.34	2.198901305	0.064698506	-8.708795847	-0.017735843	-0.015290379	-0.086563719
29.36	2.198651839	0.064229971	-8.706534701	-0.017865409	-0.015329061	-0.086741889
29.38	2.198400228	0.063773356	-8.704327874	-0.017993229	-0.015365608	-0.086918419
29.4	2.198146445	0.063328757	-8.702175439	-0.01811928	-0.015400013	-0.087093284
29.42	2.197890468	0.062896268	-8.70007747	-0.018243541	-0.015432268	-0.087266461
29.44	2.197632273	0.062475986	-8.698034037	-0.018365992	-0.015462365	-0.087437925
29.46	2.197371838	0.062068005	-8.69604521	-0.018486611	-0.015490299	-0.087607655
29.48	2.197109141	0.06167242	-8.694111057	-0.018605378	-0.015516061	-0.087775626
29.5	2.196844164	0.061289326	-8.692231645	-0.018722271	-0.015539645	-0.087941815
29.52	2.196576886	0.060918817	-8.690407041	-0.01883727	-0.015561045	-0.088106199
29.54	2.196307289	0.060560987	-8.688637308	-0.018950354	-0.015580253	-0.088268756
29.56	2.196035356	0.06021593	-8.686922509	-0.019061503	-0.015597265	-0.088429463
29.58	2.195761071	0.059883738	-8.685262708	-0.019170695	-0.015612072	-0.088588299
29.6	2.195484419	0.059564506	-8.683657965	-0.019277912	-0.01562467	-0.08874524
29.62	2.195205387	0.059258326	-8.682108339	-0.019383131	-0.015635053	-0.088900266
29.64	2.19492396	0.058965289	-8.68061389	-0.019486334	-0.015643214	-0.089053354
29.66	2.194640128	0.058685489	-8.679174676	-0.019587499	-0.015649149	-0.089204484
29.68	2.194353879	0.058419016	-8.677790752	-0.019686608	-0.015652852	-0.089353634
29.7	2.194065206	0.058165961	-8.676462174	-0.01978364	-0.015654317	-0.089500783
29.72	2.193774098	0.057926415	-8.675188998	-0.019878575	-0.01565354	-0.089645912
29.74	2.19348055	0.057700469	-8.673971276	-0.019971394	-0.015650516	-0.089789
29.76	2.193184556	0.057488212	-8.67280906	-0.020062077	-0.01564524	-0.089930027
29.78	2.192886111	0.057289732	-8.671702404	-0.020150606	-0.015637708	-0.090068972
29.8	2.192585212	0.05710512	-8.670651357	-0.02023696	-0.015627915	-0.090205818
29.82	2.192281857	0.056934462	-8.669655969	-0.020321121	-0.015615856	-0.090340545
29.84	2.191976045	0.056777846	-8.66871629	-0.020403071	-0.015601529	-0.090473133
29.86	2.191667778	0.05663536	-8.667832367	-0.020482789	-0.015584929	-0.090603566
29.88	2.191357056	0.056507089	-8.667004247	-0.020560259	-0.015566052	-0.090731823
29.9	2.191043884	0.056393119	-8.666231979	-0.02063546	-0.015544896	-0.090857889
29.92	2.190728266	0.056293536	-8.665515606	-0.020708376	-0.015521456	-0.090981744
29.94	2.190410209	0.056208423	-8.664855174	-0.020778989	-0.015495729	-0.091103373
29.96	2.19008972	0.056137865	-8.664250729	-0.020847279	-0.015467714	-0.091222757
29.98	2.189766807	0.056081944	-8.663702312	-0.020913231	-0.015437406	-0.091339882
30	2.189441481	0.056040743	-8.663209968	-0.020976826	-0.015404804	-0.091454731
30.02	2.189113755	0.056014343	-8.662773738	-0.021038047	-0.015369905	-0.091567287
